onset	duration	trial_type	response_time	feedback_onset	correct/incorrect
0.710055417192	2.5	A	0.666808638187	1.71001406333	1.0
3.2266638212	2.5	BL	0.799873885822	4.226478483469998	1.0
5.72643003607	2.5	BL	0.566791462756	6.7264363749800005	1.0
8.226356233010002	2.5	B	0.650078436498	9.22634778112	1.0
10.726300842999999	2.5	C	0.766768763409	11.7262951078	0.0
13.2262508863	2.5	A	0.766765744876	14.226221304700001	1.0
15.7261903648	2.5	C	0.7834410093240001	16.7261764796	1.0
18.2261235044	2.5	BL	0.766782346793	19.226129541400002	1.0
20.7260711329	2.5	BL	0.7001006075990001	21.726062982800002	1.0
23.226013328	2.5	B	0.733425478989	24.225996122399998	1.0
25.7259534102	2.5	A	0.516739106355	26.7259346953	0.0
28.2258946998	2.5	BL	0.666782376979	29.225901642399997	1.0
30.725834782	2.5	C	0.583390660246	31.7258196893	1.0
33.2257712419	2.5	BL	0.866808577815	34.225767016	0.0
35.7257179649	2.5	BL	0.733480114377	36.7257113241	1.0
38.225674347100004	2.5	BL	0.733371447306	39.2256658952	1.0
40.7256165423	2.5	BL	0.633404077613	41.7256044681	1.0
43.225561756000005	2.5	BL	0.566807762814	44.225555718900004	1.0
45.7254954992	2.5	BL	0.533410748561	46.72548704729999	1.0
48.225435581400006	2.5	B	0.733414612281	49.22541747020001	1.0
50.725380191400006	2.5	C	0.7334372512559999	51.7253614765	1.0
53.2253081994	2.5	BL	0.633481653829	54.225311519799995	1.0
55.7252506965	2.5	A	0.65014031636	56.7252416409	1.0
58.2252010416	2.5	B	0.5167243155560001	59.225174478599996	1.0
60.725142633100006	2.5	C	0.7167529312209999	61.725115466300004	0.0
63.2250721504	2.5	B	0.683423230184	64.2250667171	0.0
65.7250218919	2.5	A	0.900058891519	66.7250004603	1.0
68.2249631815	2.5	B	0.750061200695	69.2249393351	1.0
70.7248981322	2.5	C	0.716734518188	71.72488092649999	0.0
73.22500695020001	2.5	BL	n/a	74.2248560237	n/a
75.7247909744	2.5	A	0.7167508182469999	76.7247668261	1.0
78.22472320840001	2.5	A	0.516733069293	79.2247165676	1.0
80.724674761	2.5	C	0.41673491059600004	81.7246533294	1.0
83.22461273020001	2.5	BL	n/a	84.2246079005	n/a
85.7245561327	2.5	B	0.6833522947310001	86.724539229	0.0
88.22447810370001	2.5	C	0.500097951292	89.2244744815	0.0
90.724432373	2.5	B	0.550115896451	91.7244230156	0.0
93.22438302	2.5	BL	0.73339227516	94.2243839256	1.0
95.7243228004	2.5	A	0.600168856559	96.7243080096	1.0
98.2242631844	2.5	C	0.58341843072	99.2242508084	1.0
100.72420839799999	2.5	B	0.583378887979	101.72418153299999	1.0
103.224152404	2.5	A	0.616736963198	104.224117691	1.0
105.724082525	2.5	B	0.700135320694	106.724074677	0.0
108.224014458	2.5	C	0.8835131220039999	109.22400993	1.0
110.723977179	2.5	A	0.5333811669699999	111.723951219	1.0
113.223922996	2.5	BL	0.866806766699	114.22391756299999	1.0
115.723864588	2.5	A	0.633384759021	116.72384587299999	1.0
118.223789577	2.5	C	0.6834340968889999	119.223778107	1.0
120.723748374	2.5	B	0.56674165701	121.723720906	1.0
123.22368906	2.5	C	0.7334022363070001	124.22367155299999	1.0
125.723632764	2.5	A	0.566754032985	126.72360801299999	1.0
128.223572847	2.5	BL	0.8000836736460001	129.22357828	1.0
130.723508703	2.5	B	0.616749037315	131.72350115700002	1.0
133.223451804	2.5	BL	0.8334677082199999	134.223461765	1.0
135.723393395	2.5	A	0.5333905244120001	136.723371058	1.0
138.223333477	2.5	C	0.56676520154	139.223318988	1.0
140.72329046299998	2.5	BL	0.666810751158	141.723288954	1.0
143.223231149	2.5	B	0.683415382005	144.223228131	0.0
145.723175457	2.5	BL	0.800147364625	146.723176061	0.0
148.223118256	2.5	A	0.583431108545	149.223075997	1.0
150.72305381	2.5	C	0.650134581156	151.723027549	1.0
153.223002646	2.5	B	0.866813105615	154.222984535	1.0
155.722945747	2.5	A	0.600142293497	156.722930654	1.0
158.222890055	2.5	BL	0.76678113938	159.222891564	0.0
160.722833156	2.5	B	0.6167484336069999	161.722834363	1.0
163.222759353	2.5	C	0.48346041847300003	164.222735506	0.0
165.722708491	2.5	A	0.5333896188530001	166.722705472	1.0
168.22266276	2.5	BL	0.600079206222	169.222658836	0.0
170.722604955	2.5	C	0.666751889825	171.722589862	1.0
173.222548659	2.5	B	0.5667781812229999	174.22253115200004	0.0
175.72249145799995	2.5	BL	0.8334492951870001	176.72249025099998	1.0
178.222434257	2.5	BL	0.8000854847669999	179.22242912599998	0.0
180.722378565	2.5	C	n/a	181.72236286900002	n/a
183.222311403	2.5	A	0.5500980871260001	184.222302951	1.0
185.722256013	2.5	B	0.733436043844	186.722246052	1.0
188.22221028200002	2.5	C	0.683415382005	189.22214930799998	0.0
190.722149761	2.5	A	0.500104290204	191.722128027	1.0
193.22205663900002	2.5	B	0.566815309139	194.222066298	1.0
195.722028114	2.5	BL	0.800155212808	196.72203656599999	1.0
198.221971215	2.5	A	0.40009918889	199.221963367	1.0
200.72194269	2.5	B	0.5000958383240001	201.72189650599998	1.0
203.22184685099998	2.5	C	0.650063041994	204.22184021099997	0.0
205.721801121	2.5	B	0.633387475697	206.721795083	0.0
208.22175539	2.5	A	0.53341648377	209.221736977	1.0
210.72169667900002	2.5	C	n/a	211.721679172	n/a
213.22163978	2.5	C	0.5500851074499999	214.22162438599997	1.0
215.72158439	2.5	A	0.516760537914	216.721557223	1.0
218.22152779299998	2.5	B	0.350068264052	219.22150123	1.0
220.72146183799998	2.5	A	0.43342828622199997	221.72143708599998	1.0
223.22141218299998	2.5	C	0.41677113295400003	224.22138894	1.0
225.721329928	2.5	B	0.7001205298980001	226.721331437	0.0
228.221299592	2.5	BL	0.766769668964	229.22129264900002	1.0
230.721241485	2.5	C	0.650139410798	231.721226392	1.0
233.22118971700002	2.5	A	0.483474605564	234.221171908	1.0
235.721130705	2.5	B	0.566753429277	236.721114707	1.0
238.221072598	2.5	A	0.633420679525	239.221055996	1.0
240.72097766599998	2.5	C	0.4667881725550001	241.72099970099998	1.0
243.22095125299998	2.5	B	n/a	244.22094431099998	n/a
245.720907636	2.5	A	0.483387671902	246.720889525	1.0
248.22084651	2.5	C	0.516759330501	249.220822362	1.0
250.72079263	2.5	BL	0.733476793994	251.720791724	0.0
253.220726977	2.5	B	0.433499221672	254.220718223	1.0
255.720670379	2.5	C	0.616770770732	256.720665851	1.0
258.220622536	2.5	B	0.5167249192600001	259.220608952	0.0
260.720563523	2.5	BL	0.733479812523	261.720565033	0.0
263.220506624	2.5	A	0.483478227798	264.220493946	1.0
265.720453347	2.5	B	0.466755572434	266.72043916	1.0
268.220398863	2.5	C	0.5167191840559999	269.220381657	0.0
270.720338643	2.5	A	0.5166639449600001	271.720324154	1.0
273.220282347	2.5	BL	0.733478001406	274.22028747900004	1.0
275.720224241	2.5	B	0.5167430304389999	276.720211261	1.0
278.220170662	2.5	BL	0.666771208416	279.220173982	1.0
280.72011798799997	2.5	A	0.466751044638	281.72010017900004	1.0
283.220056561	2.5	C	0.533477156219	284.22004116700003	1.0
285.720001171	2.5	A	0.566753127423	286.719985173	1.0
288.219943064	2.5	C	0.666764567653	289.219927972	1.0
290.71987861900004	2.5	BL	0.700155544844	291.719885863	1.0
293.219830775	2.5	B	0.550074240742	294.21981598400004	0.0
295.719774781	2.5	A	0.533393542941	296.719762405	1.0
298.219717882	2.5	B	0.516723711851	299.21970128	1.0
300.719663096	2.5	C	0.8002385242290001	301.71963774	0.0
303.219605291	2.5	B	0.533416785624	304.219587784	0.0
305.71954627900004	2.5	C	0.7001150965440001	306.71952575299997	1.0
308.219493605	2.5	A	0.5001000642660001	309.21946885299997	1.0
310.719432178	2.5	A	0.633324388422	311.719408936	1.0
313.219377392	2.5	C	0.5333802614109999	314.219361997	1.0
315.719321398	2.5	BL	0.6333995498170001	316.719324115	0.0
318.21925665099997	2.5	B	0.750037354308	319.21924095400004	0.0
320.719209713	2.5	C	n/a	321.719197639	n/a
323.219154624	2.5	B	0.633422490646	324.219139532	1.0
325.719090783	2.5	A	0.533326833433	326.719087462	1.0
328.219043543	2.5	C	0.5500902389500001	329.219024828	1.0
330.718984228	2.5	A	0.36676133782399994	331.718965815	1.0
333.218938498	2.5	B	0.850032796327	334.21890499200003	0.0
335.718877373	2.5	C	0.68336527441	336.718856847	1.0
338.218803268	2.5	A	0.40010613151	339.21880055099996	1.0
340.718751198	2.5	B	0.466754666875	341.718736105	1.0
343.218695808	2.5	C	0.416736721712	344.218692789	1.0
345.718649474	2.5	BL	0.633469579712	346.718653398	1.0
348.2185901590001	2.5	B	0.650046440081	349.2185590690001	0.0
350.71852782699995	2.5	A	0.5167463508219999	351.718523903	1.0
353.2184793790001	2.5	BL	0.933424211205	354.218484209	1.0
355.71842429099996	2.5	A	0.500116062474	356.718433649	1.0
358.21835743099996	2.5	B	0.6000879599600001	359.218341131	1.0
360.718313813	2.5	BL	0.766752765201	361.718313813	0.0
363.21827079900004	2.5	C	0.583394584337	364.21823306699997	0.0
365.718199109	2.5	B	0.600143199055	366.71818673300004	0.0
368.21813255	2.5	C	0.816815384602	369.218125004	0.0
370.71808531	2.5	BL	0.733482227348	371.71808621599996	1.0
373.21802931699995	2.5	A	0.566779690485	374.21800396099997	1.0
375.717962456	2.5	BL	0.700138037369	376.71797604	0.0
378.217917631	2.5	A	0.466727801955	379.217901029	1.0
380.71786314599996	2.5	C	0.7334432883140001	381.717843828	1.0
383.217802625	2.5	BL	0.7000939668359999	384.217806851	1.0
385.717750555	2.5	BL	0.766751255935	386.71775085699994	0.0
388.25102335699995	2.5	BL	0.733453853169	389.251028187	1.0
390.717637964	2.5	B	0.48339340710699996	391.71762317300005	1.0
393.217582876	2.5	A	0.566790859048	394.217561444	1.0
395.71754378599996	2.5	B	0.616720361279	396.71749881	1.0
398.21746726599997	2.5	C	0.7167939832250001	399.21747300199996	0.0
