onset	duration	trial_type	response_time	feedback_onset	correct/incorrect
0.709257202193	2.5	B	0.800069124146	1.70924241144	1.0
3.22586873053	2.5	C	0.516703593248	4.22584850643	1.0
5.72578602304	2.5	A	0.666754606264	6.725769723019999	1.0
8.225749800780001	2.5	C	0.483415336505	9.22572052112	1.0
10.7256501896	2.5	A	0.48344039023400004	11.7256580377	1.0
13.2256100432	2.5	B	0.416754908116	14.2255889136	1.0
15.7255255246	2.5	C	0.5334337494870001	16.725509828299998	1.0
18.2254714931	2.5	A	0.566706913623	19.2254476468	1.0
20.7253918041	2.5	BL	0.566667974693	21.725236953899998	1.0
23.2251639057	2.5	B	0.450100818623	24.2251427761	1.0
25.725110175999998	2.5	A	0.550016300016	26.7250805945	1.0
28.2250329019	2.5	B	0.400099309362	29.2250247519	1.0
30.7249900389	2.5	BL	0.600135833474	31.724965890700002	1.0
33.224907029499995	2.5	C	0.550079688971	34.2248837869	1.0
35.724844848000004	2.5	A	0.550058861172	36.7248318683	1.0
38.224783270100005	2.5	C	0.499987020357	39.2247518775	1.0
40.7247132404	2.5	B	0.516792337785	41.7246887904	0.0
43.22464472	2.5	C	0.550070029703	44.224630231099994	1.0
45.724574992200004	2.5	A	0.566799582237	46.7245647292	1.0
48.2245097921	2.5	B	0.7166839728579999	49.224494397600004	0.0
50.7244512328	2.5	A	0.60009206491	51.724437649399995	1.0
53.224392673400004	2.5	C	0.633419260583	54.2243537345	1.0
55.724334416000005	2.5	B	0.433407186496	56.7242957789	1.0
58.2242426529	2.5	C	0.500083914902	59.224232389899996	1.0
60.7241907343	2.5	B	0.4834014513050001	61.7241596436	0.0
63.2241134602	2.5	A	0.583437371713	64.2241001787	1.0
65.72406063609999	2.5	BL	0.700137644588	66.7240473546	1.0
68.2239800415	2.5	A	0.716721402526	69.2239697786	1.0
70.7239154452	2.5	C	0.43343646615599996	71.7238952211	1.0
73.2238571877	2.5	B	0.600073651928	74.2238297192	1.0
75.7237865543	2.5	BL	0.533492610659	76.7237877617	1.0
78.2237292024	2.5	A	0.600071840815	79.22370867640001	1.0
80.7236633986	2.5	C	0.48342076984399995	81.7236486079	1.0
83.2235978967	2.5	BL	0.500158774239	84.2235936708	1.0
85.72352515029999	2.5	B	0.46683489893999996	86.7235151892	1.0
88.2234647799	2.5	BL	0.500144587188	89.22346327059998	1.0
90.7233932409	2.5	C	0.550127683467	91.72338418540001	1.0
93.2233364927	2.5	B	0.40007485933700004	94.2233060057	0.0
95.72327250010001	2.5	A	0.750141266813	96.7232429185	1.0
98.2232066963	2.5	B	0.48344763468699997	99.2231750018	1.0
100.723130931	2.5	BL	0.533480536572	101.723138478	1.0
103.223082333	2.5	A	0.616707819178	104.22305516700001	1.0
105.723014115	2.5	C	0.550140059405	106.72299479600001	1.0
108.222952839	2.5	BL	0.533431032817	109.22291993700001	1.0
110.72288371399999	2.5	A	0.616702989544	111.72287586600001	1.0
113.22281096799999	2.5	BL	0.533486271763	114.222804026	1.0
115.722752711	2.5	BL	0.666793847045	116.722745768	1.0
118.222673927	2.5	BL	0.566763359977	119.222671211	1.0
120.722609935	2.5	BL	0.633432843931	121.722616575	1.0
123.222545036	2.5	B	0.9000413537469999	124.222534472	0.0
125.72249342	2.5	C	0.566742230326	126.72247349700001	1.0
128.222420371	2.5	A	0.7667766414720001	129.222393205	1.0
130.72234913399998	2.5	B	0.4500652000680001	131.722339777	0.0
133.222299329	2.5	C	0.550080594528	134.222287556	1.0
135.72222658200002	2.5	A	0.500059766729	136.722208169	1.0
138.222153534	2.5	B	0.416751587742	139.222141762	0.0
140.722088636	2.5	BL	0.6668086378010001	141.722088334	1.0
143.222031586	2.5	C	0.566718082152	144.22200291	1.0
145.72196216	2.5	BL	0.900116213083	146.721957028	1.0
148.2219036	2.5	A	0.649986718505	149.221858021	1.0
150.721828741	2.5	BL	0.533495025476	151.721836589	1.0
153.221764145	2.5	B	0.566721402526	154.221754787	0.0
155.721709811	2.5	C	0.483405375383	156.721670571	1.0
158.221633745	2.5	C	0.666725930308	159.221620765	1.0
160.72158031700002	2.5	B	0.48339692352200003	161.721563111	0.0
163.221516626	2.5	A	0.433447936539	164.22145746299998	1.0
165.721451728	2.5	BL	0.733422580956	166.721445993	0.0
168.221373246	2.5	A	0.666722911787	169.221363285	1.0
170.72132042200002	2.5	C	0.550106553814	171.72130231100002	1.0
173.22125673099998	2.5	B	0.600086329719	174.22123379099997	0.0
175.721196663	2.5	BL	n/a	176.721204209	n/a
178.221115766	2.5	BL	0.6001596797959999	179.221109126	0.0
180.72105781099998	2.5	BL	0.5334711791560001	181.721081053	1.0
183.220984763	2.5	BL	0.766821315593	184.220984763	0.0
185.720928316	2.5	C	0.5334174494699999	186.72091443099998	1.0
188.22086281400001	2.5	A	0.683468462486	189.22084259	1.0
190.720791275	2.5	BL	0.533493214363	191.72080546200002	1.0
193.22072456599997	2.5	B	0.566714459926	194.220714907	0.0
195.72066208299998	2.5	A	0.583430730965	196.72065000799998	1.0
198.22060956	2.5	C	0.5000808963800001	199.220577262	1.0
200.720533795	2.5	BL	0.766809241505	201.720558849	1.0
203.220476142	2.5	B	0.616722609935	204.220463766	1.0
205.72040490400002	2.5	A	0.683410205018	206.72038226599997	1.0
208.22035208	2.5	C	0.48345306802500004	209.220340912	1.0
210.720284465	2.5	B	0.633384547584	211.720261525	0.0
213.220207795	2.5	BL	0.666769698872	214.220210512	1.0
215.720155273	2.5	C	0.550141870517	216.72013867099997	1.0
218.22009067599998	2.5	B	0.600085424162	219.22006773599998	1.0
220.72005505799999	2.5	A	0.583357380889	221.720016421	1.0
223.219935223	2.5	C	0.550115005674	224.219947297	1.0
225.719889945	2.5	A	0.516779358141	226.719837724	1.0
228.21982202799998	2.5	B	0.5667159691870001	229.219815085	0.0
230.719774033	2.5	A	0.483427712444	231.71974898	1.0
233.21969917400003	2.5	C	0.466758530342	234.219680157	1.0
235.719635785	2.5	B	0.466797771123	236.719623711	1.0
238.219562435	2.5	A	0.500096592693	239.21955156799999	1.0
240.719509913	2.5	C	0.566750682186	241.719490896	1.0
243.21943445	2.5	B	0.550098101954	244.219412415	1.0
245.719381324	2.5	BL	0.633437371713	246.71938162599997	1.0
248.219313105	2.5	A	0.533455482843	249.219293183	1.0
250.71925515	2.5	C	0.616759134046	251.719236435	1.0
253.219182403	2.5	B	0.616702989544	254.21915855700001	1.0
255.719123542	2.5	C	0.450046787086	256.719068907	1.0
258.219050494	2.5	B	0.6834648402600001	259.219026648	1.0
260.71897231400004	2.5	A	0.666754304411	261.718976238	1.0
263.21889021	2.5	B	0.500111383449	264.218897455	1.0
265.718866968	2.5	BL	0.633412016131	266.718863044	1.0
268.218789694	2.5	C	0.5834609161819999	269.218776412	1.0
270.71874079400004	2.5	BL	0.50011138345	271.718748642	1.0
273.21868646	2.5	A	0.600023242617	274.218641786	1.0
275.71860979	2.5	C	0.500022638913	276.718588056	1.0
278.218538251	2.5	B	0.583464236555	279.218572058	0.0
280.718467014	2.5	BL	0.766813165584	281.718492067	0.0
283.218408152	2.5	A	0.56670238584	284.21839155099997	1.0
285.71836649700003	2.5	BL	0.966728345126	286.718353517	1.0
288.21828046900004	2.5	B	0.583488988433	289.21827896	0.0
290.718198969	2.5	BL	0.633482045833	291.71821738200003	1.0
293.218152182	2.5	C	0.516711743257	294.218132863	1.0
295.71809	2.5	A	0.550111081597	296.718073097	1.0
298.21802208400004	2.5	C	0.7667591340469999	299.217993408	1.0
300.717949941	2.5	B	0.566725930308	301.71792911299997	1.0
303.21788564599996	2.5	A	0.600079085268	304.21787478	1.0
305.71782618099996	2.5	B	0.450089046389	306.71781833299997	0.0
308.217765811	2.5	BL	0.566760039603	309.217761283	1.0
310.717692763	2.5	C	0.600151529788	311.717676161	1.0
313.217636316	2.5	A	0.550080292675	314.21760915	1.0
315.717565079	2.5	A	0.516715365483	316.717546063	1.0
318.21752915900004	2.5	B	0.45005554079899995	319.217495653	0.0
320.717434377	2.5	C	0.516815278549	321.717427133	1.0
323.217352877	2.5	B	0.58348868658	324.217318466	1.0
325.717306996	2.5	A	0.583417751322	326.71729794	1.0
328.217243909	2.5	C	0.950057351912	329.217230325	1.0
330.717206177	2.5	BL	0.6001838279680001	331.717175388	1.0
333.217112603	2.5	A	0.550081500085	334.21709388799997	1.0
335.717062194	2.5	BL	0.566772717394	336.717056458	1.0
338.21697194	2.5	B	0.616737702543	339.21697314700003	0.0
340.71692002099996	2.5	C	0.550107157518	341.716903721	1.0
343.216878064	2.5	BL	0.6334195624360001	344.216852105	0.0
345.716805921	2.5	BL	0.633422882808	346.71679113	1.0
348.21673559	2.5	B	0.5500748593370001	349.21671657300004	1.0
350.716667673	2.5	A	0.683375793871	351.716650769	1.0
353.21660730199994	2.5	BL	0.7334817439810001	354.216602473	0.0
355.716536065	2.5	C	0.566777848881	356.716514634	1.0
358.21647780800004	2.5	A	0.550073651928	359.216447924	1.0
360.71640687300004	2.5	C	n/a	361.71638483699996	n/a
363.21633895599996	2.5	BL	0.500149718673	364.216339258	0.0
365.716278887	2.5	BL	0.5000950834319999	366.71628522599997	1.0
368.216210971	2.5	B	0.450096592693	369.216189539	1.0
370.71614607199996	2.5	A	0.48343556060000004	371.716135507	1.0
373.216088419	2.5	C	0.48342227910400004	374.21606879800004	1.0
375.71603106699996	2.5	B	0.5334201661399999	376.716055517	1.0
378.215952585	2.5	BL	0.800085726015	379.21594564199995	0.0
380.71589704400003	2.5	C	0.566756719229	381.71587168900004	1.0
383.21582490199995	2.5	A	0.550099007511	384.21581463900003	1.0
385.715767248	2.5	B	0.716765472942	386.71575336300003	0.0
388.215702953	2.5	A	0.783430127261	389.21567518300003	1.0
390.71563171599996	2.5	BL	0.5667790562889999	391.715637753	0.0
393.215576779	2.5	BL	0.700162094612	394.215568025	1.0
395.715513088	2.5	B	0.85012134457	396.71548531800005	0.0
398.215445775	2.5	C	n/a	399.215421929	n/a
