onset	duration	trial_type	response_time	feedback_onset	correct/incorrect
0.7081198201410001	2.5	A	0.666768191084	1.7081406482400001	1.0
3.22477294351	2.5	C	0.516742774762	4.22476237853	1.0
5.7247454745700015	2.5	B	0.48341569992	6.72472011862	1.0
8.22471438334	2.5	BL	0.5666155120449999	9.224553191950001	1.0
10.7245091209	2.5	A	0.616766259202	11.7245012726	1.0
13.2244279215	2.5	B	0.700114282885	14.2244677666	1.0
15.724449655199999	2.5	BL	0.700109755038	16.724475313	1.0
18.2244203751	2.5	C	0.566743801075	19.2244155454	1.0
20.7243838504	2.5	B	0.533388955431	21.724379020700002	1.0
23.2243563815	2.5	A	0.633426928984	24.2243403831	1.0
25.724324384699997	2.5	C	0.46676438768899997	26.724311103	1.0
28.2243029529	2.5	B	0.533470758553	29.2242643152	1.0
30.7242751821	2.5	C	0.483412983212	31.724259787399998	1.0
33.22423745	2.5	A	0.516732209784	34.224238959299996	1.0
35.7241988124	2.5	C	0.650157327625	36.7242169238	1.0
38.224180701	2.5	B	0.5334384599009999	39.224191266	1.0
40.7241314984	2.5	A	0.633426928984	41.724153232	1.0
43.224117613000004	2.5	A	0.600103476423	44.224113386999996	1.0
45.724083201300004	2.5	B	0.6834025993449999	46.7240783716	1.0
48.2240593547	2.5	C	0.416726534881	49.2240626751	1.0
50.7240303764	2.5	C	0.616777126037	51.724034602399996	1.0
53.224007435299995	2.5	B	0.666793848886	54.224005322299995	1.0
55.7239712125	2.5	A	0.7001363184139999	56.72397724970001	1.0
58.22395008260001	2.5	A	0.51673522835	59.2239395176	1.0
60.7239141617	2.5	BL	0.76681522033	61.72393498979999	1.0
63.22389454100001	2.5	BL	0.600140906634	64.2238963521	1.0
65.72386797760001	2.5	B	0.48341117207400003	66.72385620520001	1.0
68.2238076063	2.5	C	0.566743801075	69.2238190769	1.0
70.7238054933	2.5	A	0.60011494697	71.7238006636	1.0
73.22375900739999	2.5	C	0.516747604466	74.2237529703	1.0
75.7237445183	2.5	BL	0.666863275892	76.7237427071	1.0
78.223721879	2.5	BL	0.766786845816	79.2237333496	1.0
80.72367810979999	2.5	BL	0.6334359846809999	81.72370256020001	1.0
83.2236325295	2.5	B	0.583463936597	84.2236430945	0.0
85.7236174367	2.5	A	0.633359011263	86.72365003719999	1.0
88.2235905715	2.5	BL	0.6334821687309999	89.22358755290001	1.0
90.7235664229	2.5	B	0.583393302164	91.7235603858	0.0
93.2235615932	2.5	BL	0.566760705038	94.2235709508	1.0
95.7235078628	2.5	C	0.633409421302	96.72351239059999	1.0
98.22348824209999	2.5	BL	0.633466170333	99.22351299430001	1.0
100.723451416	2.5	B	0.6167569016510001	101.723464395	1.0
103.22344507700001	2.5	BL	0.600146038196	104.223458056	1.0
105.723413985	2.5	A	0.700149600103	106.723407043	1.0
108.223368103	2.5	C	0.533483738382	109.223378668	1.0
110.72335391600001	2.5	A	0.43342372930399997	111.723325843	1.0
113.223309543	2.5	B	0.5834711811509999	114.22332856	0.0
115.72327332	2.5	BL	0.76681642776	116.72328509299999	1.0
118.22326637799999	2.5	BL	0.566763119892	119.223277546	1.0
120.723237399	2.5	C	0.600092609588	121.72318759299999	1.0
123.223207817	2.5	B	0.566725387827	124.22320208200001	1.0
125.72315619999999	2.5	A	0.600142717773	126.72315227600001	1.0
128.22312661799998	2.5	C	0.5834790294250001	129.22312269399998	1.0
130.72312058100002	2.5	BL	0.6334030823160001	131.72311062	1.0
133.223090093	2.5	B	0.433459348376	134.223063832	1.0
135.72304783299998	2.5	A	0.6834391239859999	136.72303425	1.0
138.22303213700002	2.5	C	0.600091100303	139.223033344	1.0
140.723007988	2.5	B	0.550139578463	141.722996216	1.0
143.222972671	2.5	A	0.7500513156119999	144.222954862	1.0
145.722928902	2.5	C	0.650137103239	146.72291713	1.0
148.222914111	2.5	B	0.716777971233	149.22290867799998	1.0
150.722885435	2.5	C	0.633356596409	151.722860984	1.0
153.22284619299998	2.5	A	0.533440271043	154.222851325	1.0
155.722828384	2.5	BL	0.733429283468	156.722838949	1.0
158.222801217	2.5	BL	0.800072566311	159.222788237	1.0
160.72274809	2.5	C	0.6833902232279999	161.722742053	1.0
163.22271881	2.5	B	0.566725689681	164.22273360100002	1.0
165.722711565	2.5	A	0.8334120172689999	166.722683794	1.0
168.222683493	2.5	A	n/a	169.222653005	n/a
170.722631875	2.5	C	0.783470154842	171.722647572	1.0
173.222615273	2.5	B	0.5500958092670001	174.222597463	1.0
175.722572711	2.5	C	0.56677821272	176.722589313	1.0
178.22254977	2.5	B	0.550083433147	179.222539809	1.0
180.72254584599997	2.5	A	0.483412983212	181.722508718	1.0
183.22248758799998	2.5	C	0.550064718042	184.222480343	1.0
185.722480645	2.5	BL	0.600107702412	186.72249332299998	1.0
188.222429027	2.5	BL	0.633504807971	189.22246132599997	0.0
190.722424198	2.5	BL	0.600112833974	191.722433555	1.0
193.222371977	2.5	BL	0.900116275137	194.222405483	1.0
195.72235567599998	2.5	A	0.550119655934	196.722345715	1.0
198.222333943	2.5	BL	0.800085546143	199.222334848	1.0
200.722305568	2.5	B	0.583393604022	201.722299833	1.0
203.22227659	2.5	C	0.750059163878	204.222269345	1.0
205.72222768900002	2.5	A	0.7167529171420001	206.722230104	1.0
208.22221803	2.5	B	0.9000546964020001	209.222211087	1.0
210.722147395	2.5	A	0.500154550547	211.722197805	1.0
213.222140151	2.5	C	0.516737945058	214.22214256599997	1.0
215.722109965	2.5	B	0.450132394275	216.722113889	1.0
218.222106041	2.5	BL	0.733458865405	219.22209306099998	0.0
220.72207434599997	2.5	BL	0.866771692617	221.722088835	1.0
223.222045066	2.5	A	0.516725870795	224.222021521	1.0
225.721994656	2.5	C	0.433435803567	226.72200974900002	1.0
228.221987713	2.5	BL	0.700075343389	229.22197714799998	1.0
230.72193669900003	2.5	BL	0.666817695554	231.72194726400002	0.0
233.221917079	2.5	BL	0.900084882058	234.22191979599998	1.0
235.72187964900002	2.5	B	0.633406100882	236.721839804	1.0
238.221857613	2.5	BL	0.9000891080500001	239.221860933	1.0
240.721823805	2.5	C	0.60014090663	241.721838596	1.0
243.221801468	2.5	A	0.43348953402900003	244.221810523	1.0
245.72177249	2.5	BL	0.500164511814	246.72178184700002	1.0
248.22175920799998	2.5	BL	0.800093092555	249.22177067799998	1.0
250.721738078	2.5	B	0.483374345575	251.72172207900002	0.0
253.22169883700002	2.5	BL	0.8001063742450001	254.22170940200002	1.0
255.72167166900002	2.5	C	0.600089289164	256.721664123	1.0
258.22164148400003	2.5	A	0.48345765798100004	259.22163816299997	1.0
260.721576585	2.5	B	0.550136559898	261.721609487	1.0
263.221570849	2.5	C	0.7500479951890001	264.22155575700003	1.0
265.72153372099996	2.5	BL	0.633416364006	266.72154489	1.0
268.221525571	2.5	BL	0.733473958233	269.22153885299997	0.0
270.72145916200003	2.5	B	0.9167530982559999	271.721437731	0.0
273.221470029	2.5	A	0.500088142107	274.22146369	1.0
275.72142143	2.5	B	0.61666332612	276.721415091	0.0
278.22141328	2.5	C	0.633410025021	279.221382793	1.0
280.721382793	2.5	A	0.40009303218500003	281.72135622900004	1.0
283.221355626	2.5	A	0.533468947415	284.221348381	1.0
285.721300688	2.5	B	0.45011820702	286.721320308	1.0
288.221274426	2.5	C	0.566738367659	289.221291934	1.0
290.72122462	2.5	A	0.43346870593099995	291.721261748	1.0
293.221238807	2.5	C	0.583478727567	294.22122129900004	1.0
295.721211942	2.5	BL	0.7001145847429999	296.721221903	1.0
298.221181153	2.5	B	0.600090496591	299.22117602099996	1.0
300.72115308	2.5	C	0.583394509591	301.721125611	1.0
303.221125309	2.5	BL	n/a	304.22113406299997	n/a
305.721074597	2.5	A	0.616749053377	306.721068862	1.0
308.221071579	2.5	B	0.550063812472	309.221045317	1.0
310.72102962099996	2.5	C	0.583379416767	311.721010604	1.0
313.221011509	2.5	A	0.6834101457610001	314.220982229	1.0
315.720983135	2.5	B	0.633347540715	316.72095476	1.0
318.220938762	2.5	A	0.683435501709	319.220933328	1.0
320.720924273	2.5	B	0.600124606379	321.720917028	1.0
323.220896804	2.5	BL	0.700094964068	324.220906463	1.0
325.720867825	2.5	BL	0.7334706378129999	326.720862694	1.0
328.220821943	2.5	C	0.783435139481	329.220831301	1.0
330.720797191	2.5	B	0.550154973145	331.72080262400004	1.0
333.220781495	2.5	A	0.650086995054	334.220773646	1.0
335.720752818	2.5	C	0.566756780907	336.720737122	1.0
338.220701503	2.5	C	0.666795358167	339.220706332	1.0
340.720673128	2.5	B	0.733411473928	341.720688221	1.0
343.220664676	2.5	A	0.666803810156	344.220661657	1.0
345.720616983	2.5	B	0.516753641597	346.720631774	1.0
348.220598871	2.5	A	0.6001007597110001	349.220603399	1.0
350.72058045800003	2.5	C	0.583393604022	351.720574723	1.0
353.2205496690001	2.5	BL	0.633456812779	354.220563554	0.0
355.720490505	2.5	A	0.7168135903049999	356.720477525	1.0
358.220482053	2.5	BL	0.633452888644	359.220506805	1.0
360.72046575300004	2.5	B	n/a	361.720417154	n/a
363.22043647199996	2.5	C	0.566754969768	364.22042349300006	1.0
365.720409305	2.5	BL	0.633430551261	366.720420172	1.0
368.220358593	2.5	A	0.566799644534	369.220373988	1.0
370.72035104699995	2.5	C	0.500090858819	371.720323276	1.0
373.220322069	2.5	B	0.633416665863	374.220304863	1.0
375.720271659	2.5	C	0.533500642348	376.720288261	1.0
378.220232719	2.5	A	0.5500792071580001	379.220245095	1.0
380.72021491	2.5	B	0.583394509591	381.72020887300005	1.0
383.22018623300005	2.5	C	0.800058379053	384.22016178300004	1.0
385.720163896	2.5	BL	0.700170428201	386.720189554	1.0
388.220133107	2.5	B	0.516741265481	389.220143973	1.0
390.720121636	2.5	A	0.6833808656739999	391.720115599	1.0
393.22009296	2.5	A	0.6000684610629999	394.220067604	1.0
395.7200507	2.5	C	0.600148754904	396.720025344	1.0
398.220022627	2.5	B	0.700075947105	399.220009345	1.0
