onset	duration	trial_type	response_time	feedback_onset	correct/incorrect
0.7124836999840001	2.5	A	0.616833691532	1.7124704184900001	1.0
3.22908013571	2.5	B	0.550072746371	4.22906323199	1.0
5.7290158412	2.5	C	0.633401149453	6.728974185599999	1.0
8.228950339279999	2.5	B	0.516727439569	9.228932831860002	0.0
10.7288993263	2.5	A	0.8334409939380001	11.728873970699999	1.0
13.2288139021	2.5	C	0.516737400691	14.228823863199999	1.0
15.7287354205	2.5	B	0.383479027312	16.7287393446	0.0
18.2286940668	2.5	A	0.716752795151	19.228674748299998	1.0
20.7286195093	2.5	C	0.61674856922	21.728622829699997	1.0
23.2285561204	2.5	C	0.466719289561	24.2285244259	1.0
25.728486996199997	2.5	A	0.516748267369	26.728458924	1.0
28.2284290406	2.5	B	0.7000953852840001	29.2284317573	0.0
30.7283741035	2.5	A	0.633396017966	31.7283487479	1.0
33.2283215812	2.5	BL	0.7666196783470001	34.2281431866	0.0
35.7280520272	2.5	B	0.68343133467	36.7280613847	0.0
38.2280139939	2.5	C	0.500079085267	39.227997090100004	1.0
40.7279484919	2.5	BL	0.666805015576	41.7279460771	0.0
43.2278956678	2.5	B	0.716731061795	44.2278534085	1.0
45.72780450850001	2.5	A	0.55012134457	46.7277857936	1.0
48.2277559103	2.5	C	0.583478725459	49.2277344788	1.0
50.7276882954	2.5	B	0.700104742701	51.7276710898	1.0
53.227633660100004	2.5	C	0.48345367173	54.2275953249	1.0
55.7275325397	2.5	BL	0.7668599526700001	56.7275551786	1.0
58.2275086933	2.5	BL	0.566733778464	59.227486658100005	1.0
60.72743111729999	2.5	A	0.7001162130840001	61.7274296081	1.0
63.2273936877	2.5	B	0.63337005868	64.2273197339	1.0
65.7273004153	2.5	C	0.600138248292	66.72727928569999	1.0
68.227227669	2.5	A	0.48348355509400004	69.2272177079	1.0
70.7271624689	2.5	B	0.866742532177	71.7271440559	0.0
73.22710843739999	2.5	BL	0.7334741976770001	74.2270782522	1.0
75.72704595399999	2.5	BL	0.700128890874	76.7270381058	1.0
78.22697954649999	2.5	C	0.766710233996	79.2269569076	1.0
80.72691313899999	2.5	A	0.550097196397	81.7268956316	1.0
83.226813226	2.5	B	0.45012134456999997	84.22679239819999	0.0
85.726731424	2.5	C	0.500150020525	86.7267709667	1.0
88.2267121055	2.5	A	0.566725930308	89.226698824	1.0
90.72666984620001	2.5	A	0.46673740068999997	91.7266502258	1.0
93.2265880442	2.5	BL	0.5001467001519999	94.22655302940001	1.0
95.7265240516	2.5	BL	0.533416242061	96.7265261645	1.0
98.22646005889999	2.5	C	0.783392999445	99.22644074040001	1.0
100.726398481	2.5	BL	0.566809543358	101.726403311	1.0
103.22631788700001	2.5	BL	n/a	104.22630490700001	n/a
105.726249668	2.5	B	0.7501485112649999	106.72623668799999	1.0
108.22620107	2.5	BL	0.7334639347040001	109.22618839200001	1.0
110.72612621	2.5	C	0.4667298543860001	111.72613919	1.0
113.226047729	2.5	A	0.5667383062470001	114.226022675	1.0
115.72600516799999	2.5	BL	0.566810750766	116.725988566	1.0
118.225941175	2.5	B	0.883411110574	119.22589650100001	0.0
120.72586178799999	2.5	C	0.8167479655169999	121.725852732	1.0
123.22580021	2.5	B	0.9000585593200001	124.22579356899999	1.0
125.72574919700001	2.5	A	0.66673589143	126.72572082299999	1.0
128.225672527	2.5	C	0.8001165149349999	129.225654415	1.0
130.725618495	2.5	A	0.500196807611	131.725589819	1.0
133.225540315	2.5	B	0.7334144309489999	134.225505602	0.0
135.725480247	2.5	BL	0.633425599479	136.72547239899998	1.0
138.22541595200002	2.5	C	0.683422580956	139.225409915	1.0
140.72537973	2.5	B	0.533372473497	141.725300645	1.0
143.225259593	2.5	A	0.6001050445530001	144.225267139	1.0
145.72523272799998	2.5	BL	0.7000999130660001	146.725226389	1.0
148.225168735	2.5	A	0.633399640193	149.225137343	1.0
150.725124967	2.5	BL	0.600092668615	151.725087235	0.0
153.225037128	2.5	B	0.833395716114	154.225019922	1.0
155.72497736100001	2.5	C	0.6833845475839999	156.724954722	1.0
158.224897974	2.5	B	0.733369153124	159.224899181	1.0
160.724865072	2.5	A	0.7833920938879999	161.724813455	1.0
163.224742822	2.5	C	0.616849689696	164.22474252	1.0
165.724704789	2.5	A	0.583396319818	166.724694224	1.0
168.224651059	2.5	B	0.950003320374	169.224624194	1.0
170.724557485	2.5	C	0.7001491149690001	171.724529111	1.0
173.224522772	2.5	BL	0.600142172369	174.22451824400002	1.0
175.72446360900003	2.5	A	0.750123759387	176.72444308299995	1.0
178.224384222	2.5	C	0.716784791481	179.22436339400002	1.0
180.724326266	2.5	B	0.533427712444	181.72428038400002	0.0
183.224266801	2.5	BL	0.566756417377	184.22426167	1.0
185.724198583	2.5	A	0.6667395136559999	186.724172623	1.0
188.224138816	2.5	BL	0.70008783898	189.22412644	1.0
190.724042223	2.5	B	0.816763058125	191.724015962	1.0
193.22399302099998	2.5	C	0.683451256912	194.22399000299998	1.0
195.72394381900003	2.5	B	0.650111987154	196.723924803	0.0
198.22387711	2.5	C	n/a	199.223866243	n/a
200.723785951	2.5	BL	0.566852406365	201.723784139	1.0
203.223752445	2.5	A	0.5667177803	204.223729504	1.0
205.723686339	2.5	A	0.583370360532	206.723657965	1.0
208.22362113900002	2.5	BL	0.566747663665	209.223630195	0.0
210.72353541299998	2.5	C	0.8500878389800001	211.72355443	1.0
213.223490135	2.5	B	0.750050107459	214.223471722	1.0
215.72341919999997	2.5	A	0.533413525392	216.72339263700002	1.0
218.22336365900003	2.5	BL	0.5667476636640001	219.223354604	1.0
220.723287895	2.5	B	0.46676034145499995	221.723245333	1.0
223.223226015	2.5	C	0.750068822294	224.22321967599999	1.0
225.723170172	2.5	B	0.800068520442	226.723146628	1.0
228.223097728	2.5	C	0.6334005457490001	229.22307237200002	1.0
230.72300837900002	2.5	A	0.533418053175	231.723025585	1.0
233.22297879799999	2.5	C	0.733395414261	234.22295012200001	1.0
235.72290695700002	2.5	BL	0.6334141290959999	236.72290756099997	1.0
238.222890355	2.5	A	0.583433145783	239.222819118	1.0
240.72274939	2.5	B	0.8501258723530001	241.72276659599999	0.0
243.222723129	2.5	BL	0.733473292121	244.22271226200002	1.0
245.72265974	2.5	BL	0.9667515877420001	246.72267694599998	1.0
248.222594842	2.5	BL	0.66678750815	249.222580051	1.0
250.72250096599998	2.5	A	0.616773321098	251.722504588	1.0
253.22245870700002	2.5	C	0.7334105068699999	254.22243637	1.0
255.72240377	2.5	B	0.466796261863	256.722383244	0.0
258.222329514	2.5	BL	0.833469971746	259.222299631	1.0
260.722260088	2.5	BL	0.9001551520119999	261.722264918	1.0
263.222205453	2.5	A	0.666757926638	264.222185229	1.0
265.72214810099996	2.5	B	0.5667491729249999	266.722120028	1.0
268.222081693	2.5	C	0.666753398855	269.222028567	1.0
270.722007136	2.5	B	0.700115005675	271.721999288	1.0
273.221971517	2.5	A	0.616741928473	274.221932578	1.0
275.721889715	2.5	C	0.583386962401	276.721870095	1.0
278.221788897	2.5	BL	0.666837313757	279.22180942299997	1.0
280.721728224	2.5	B	0.850098101953	281.721735167	1.0
283.221700152	2.5	C	0.700053125982	284.221664534	1.0
285.721628613	2.5	A	0.5001198353090001	286.721617445	1.0
288.22155133900003	2.5	A	0.55009055565	289.221516324	1.0
290.7215124	2.5	BL	0.533426505035	291.7214961	0.0
293.221433315	2.5	BL	0.8001071575190001	294.221430296	0.0
295.721381698	2.5	C	0.700117722345	296.721353324	1.0
298.221287218	2.5	BL	0.600170848325	299.22130080200003	1.0
300.721244657	2.5	B	0.750132211248	301.721223829	1.0
303.221206322	2.5	BL	0.566778150733	304.221190928	0.0
305.72112542599996	2.5	A	0.600140059404	306.721135387	1.0
308.221030644	2.5	B	0.550118326049	309.22102672	1.0
310.72099895	2.5	C	0.9666966506479999	311.720970877	1.0
313.220933146	2.5	BL	0.566760945159	314.220931938	0.0
315.720886962	2.5	BL	0.767854253701	316.720913525	1.0
318.220776786	2.5	C	0.683443408756	319.220804557	1.0
320.72074479	2.5	A	0.5001364371779999	321.720737847	1.0
323.220693777	2.5	BL	0.600113798266	324.220665403	0.0
325.72061439	2.5	B	0.550107157518	326.720604127	1.0
328.22052111799997	2.5	C	0.750088744537	329.220524438	1.0
330.720496668	2.5	A	0.466724421048	331.72045652099996	1.0
333.220432373	2.5	B	0.683394810557	334.220393132	1.0
335.720383171	2.5	C	0.550067916737	336.720309821	1.0
338.220285069	2.5	B	0.8500576537639999	339.220279334	1.0
340.72024764	2.5	BL	0.83346061433	341.720244319	1.0
343.220183949	2.5	A	0.600051918572	344.220152254	1.0
345.720119352	2.5	A	0.533368247567	346.720068339	1.0
348.220004347	2.5	C	0.5667540025600001	349.22002125	1.0
350.71998201	2.5	B	0.700127079761	351.71995544699996	1.0
353.2199125840001	2.5	A	0.55006972785	354.21988390800004	1.0
355.7198670040001	2.5	C	0.533372171645	356.719800898	1.0
358.21978339099996	2.5	BL	0.533447936538	359.219772524	1.0
360.71973781099996	2.5	B	0.40004890005099997	361.71969253300006	0.0
363.21965118	2.5	BL	0.800096894545	364.21964635	1.0
365.71958115	2.5	A	0.766753097003	366.719539494	1.0
368.219521081	2.5	C	0.666790224819	369.21950085699996	1.0
370.71944139199996	2.5	B	0.666760039603	371.719439883	1.0
373.219393096	2.5	A	0.600070331554	374.219370155	1.0
375.719302239	2.5	C	0.5667745285069999	376.71929167400003	1.0
378.21926933699996	2.5	B	0.500087537128	379.21925484800005	0.0
380.71919628800003	2.5	A	0.533413525392	381.719194477	1.0
383.21914859599997	2.5	BL	0.533443106904	384.21913893699997	1.0
385.71907554800003	2.5	BL	0.53343284393	386.71907011400003	1.0
388.21902212	2.5	B	0.650083009345	389.219002499	1.0
390.71897684199996	2.5	C	0.650122250127	391.71895390099996	1.0
393.21888477699997	2.5	C	0.63340628094	394.218910736	1.0
395.71879180699995	2.5	B	0.6667977711240001	396.718782449	1.0
398.218765847	2.5	A	0.600086329719	399.218751358	1.0
