onset	duration	trial_type	response_time	feedback_onset	correct/incorrect
0.7072415873810001	2.5	A	0.466775897859	1.70722106126	0.0
3.22384013045	2.5	B	0.6000616991219999	4.22382020803	0.0
5.723794399450001	2.5	C	0.416747085817	6.7237928901699995	1.0
8.22375772409	2.5	A	0.783407101619	9.22374715917	1.0
10.7236908632	2.5	B	0.566771037998	11.7236790909	1.0
13.2236710918	2.5	C	0.650038893991	14.2236798455	0.0
15.7236147958	2.5	A	0.5333831796230001	16.723612381	0.0
18.223565744400002	2.5	C	n/a	19.2235397849	n/a
20.723529672799998	2.5	B	0.5333804629300001	21.7235311821	0.0
23.223491186300002	2.5	C	0.8667283859139999	24.2234791121	0.0
25.723445455300002	2.5	A	0.766754073758	26.7234433423	0.0
28.2234027428	2.5	B	0.933375210658	29.2234199486	0.0
30.7233558044	2.5	C	0.766725699405	31.7233530877	0.0
33.2233031307	2.5	A	0.400085304169	34.2233007159	0.0
35.7232552868	2.5	B	0.850078980311	36.723286679699996	1.0
38.2232140836	2.5	C	0.500082255434	39.223211668699996	0.0
40.7231915954	2.5	B	0.7500916883959999	41.7231822379	0.0
43.223119904899995	2.5	A	0.533453511795	44.2231386199	0.0
45.723090473999996	2.5	BL	0.833272912063	46.72293049100001	1.0
48.222869969099996	2.5	B	0.733391269332	49.2228796285	0.0
50.7228414438	2.5	A	0.5001136483349999	51.7227880155	0.0
53.2227951091	2.5	BL	0.8335059439720001	54.22279963689999	1.0
55.722771413500006	2.5	BL	0.7667314346449999	56.7227466614	1.0
58.2226979119	2.5	C	0.783430646294	59.22265444479999	1.0
60.7226606328	2.5	C	0.45010566427500004	61.7226419178	1.0
63.2226378428	2.5	BL	0.833442856319	64.2226149018	0.0
65.72257158560001	2.5	BL	0.8334802863160001	66.7225776227	1.0
68.22251679899999	2.5	B	0.800055299802	69.2225071396	0.0
70.7224888774	2.5	A	0.750071464126	71.72246533270001	0.0
73.2224371093	2.5	B	0.900097529289	74.2224177906	0.0
75.7223950006	2.5	BL	0.933437392747	76.72240707479999	1.0
78.2223507788	2.5	C	0.8167961674099999	79.22233840279999	1.0
80.7223020293	2.5	A	0.716754239778	81.7222784846	0.0
83.2222614298	2.5	BL	0.9001385815430001	84.2222581094	1.0
85.7222096617	2.5	C	n/a	86.72220543569998	n/a
88.22217419379999	2.5	BL	0.633494232008	89.2221895884	1.0
90.7221275572	2.5	A	0.633395223631	91.7220961643	1.0
93.22208756139999	2.5	B	0.550102615542	94.2220652242	1.0
95.7220373026	2.5	BL	0.733489975855	96.7220397175	1.0
98.2219982124	2.5	BL	0.700085515467	99.2219979106	1.0
100.72195882	2.5	BL	0.600151048146	101.721967272	1.0
103.221901619	2.5	A	0.616811018666	104.22189014799999	0.0
105.721855586	2.5	B	0.900099340417	106.72181513700001	0.0
108.221822231	2.5	C	0.483453074105	109.221801705	1.0
110.72177831100001	2.5	A	0.55013642328	111.721767746	1.0
113.221727751	2.5	B	0.7334175307009999	114.22171628	0.0
115.721683831	2.5	C	0.650172011963	116.721672662	1.0
118.221651381	2.5	BL	0.766776411012	119.221647155	1.0
120.721606556	2.5	A	0.5001224021230001	121.72159750000002	1.0
123.221556599	2.5	B	0.516776939257	124.221530639	1.0
125.72152233799999	2.5	C	0.5001136483349999	126.721489134	0.0
128.22147570200002	2.5	A	0.933385171866	129.22146725	1.0
130.721425443	2.5	BL	0.6001742909669999	131.721440234	1.0
133.22139299399998	2.5	BL	0.833463080591	134.221395408	0.0
135.721344848	2.5	BL	0.8001506859199999	136.721349979	1.0
138.221300928	2.5	B	0.583416217632	139.221294891	1.0
140.721248858	2.5	C	0.8667102746259999	141.721243123	1.0
143.22121218200002	2.5	B	0.633429031368	144.221214597	0.0
145.721175205	2.5	BL	0.800148572936	146.721183657	0.0
148.221123135	2.5	A	0.900129827753	149.221112269	1.0
150.721089479	2.5	C	0.633389186534	151.721068952	1.0
153.221037409	2.5	B	0.6168164520530001	154.221038918	1.0
155.720995904	2.5	BL	0.7667628275470001	156.721000431	0.0
158.220961039	2.5	A	0.616768758993	159.220951984	1.0
160.720919534	2.5	C	0.483383949353	161.720893877	1.0
163.22087652	2.5	A	0.433472558832	164.22083275100002	1.0
165.72082354399998	2.5	BL	0.7667745998819999	166.72085041	0.0
168.220794114	2.5	B	0.600041474851	169.220771776	0.0
170.720741742	2.5	C	0.600107279199	171.720758948	1.0
173.22069752	2.5	C	n/a	174.22069450200001	n/a
175.720665373	2.5	A	0.583375165379	176.720654506	1.0
178.22061300099998	2.5	BL	0.666805721114	179.220628697	1.0
180.720570892	2.5	B	0.700094872966	181.720569383	1.0
183.220530292	2.5	BL	0.9668249492659999	184.220549309	0.0
185.720495428	2.5	A	0.616746421738	186.72047611	1.0
188.22044849	2.5	C	0.41673863388300003	189.22043400099997	1.0
190.720400948	2.5	B	0.600151651854	191.720384044	0.0
193.220366687	2.5	C	0.8168085434569999	194.22036065	1.0
195.72032548400003	2.5	A	0.583384221023	196.720310089	1.0
198.22025228400003	2.5	B	0.61682369657	199.220259831	1.0
200.720242474	2.5	A	0.533391631559	201.720230098	1.0
203.22019070599998	2.5	B	0.400108245132	204.220189197	1.0
205.720152823	2.5	C	0.866715406157	206.720139843	1.0
208.22011645	2.5	BL	0.766785466656	209.220125505	1.0
210.720076454	2.5	C	0.48338938274	211.72005532400001	1.0
213.22001925200001	2.5	B	0.41675946186499996	214.220007782	0.0
215.719982577	2.5	BL	0.666828058371	216.719998273	1.0
218.219950128	2.5	A	0.550141554811	219.219942581	1.0
220.719908924	2.5	B	0.450114719921	221.71988809599998	1.0
223.21985444	2.5	C	0.466728204799	224.21984689299998	0.0
225.71981353799998	2.5	A	0.466769558909	226.719804483	0.0
228.21978199400002	2.5	BL	0.6668183990150001	229.219785919	0.0
230.719733245	2.5	C	0.7167506175210001	231.719742301	0.0
233.219698682	2.5	BL	0.8000942390700001	234.21970773799998	1.0
235.719658989	2.5	A	0.8667099727700001	236.71963665099997	0.0
238.219612654	2.5	B	n/a	239.219602995	n/a
240.719563904	2.5	A	0.650142732045	241.719575677	1.0
243.21968208	2.5	C	0.6834509007490001	244.219679666	1.0
245.71964872599997	2.5	B	n/a	246.71964359400002	n/a
248.21961808700001	2.5	BL	0.799901353848	249.21944421900002	0.0
250.719404525	2.5	BL	0.6334305406440001	251.71940392099998	1.0
253.21935607700001	2.5	A	0.7834252129070001	254.219352455	1.0
255.71931155400003	2.5	B	0.616772079396	256.719295555	1.0
258.219273067	2.5	C	0.766810520607	259.219259786	0.0
260.719237297	2.5	A	0.7167448822779999	261.719229751	1.0
263.219189152	2.5	BL	0.833512282925	264.219203037	1.0
265.71914493	2.5	B	0.950096457704	266.71914643900004	0.0
268.219111575	2.5	BL	n/a	269.219117008	n/a
270.719098444	2.5	C	0.750046410176	271.71906131599997	0.0
273.219027961	2.5	B	0.666843452966	274.219008944	0.0
275.71897739999997	2.5	A	0.683518818081	276.718968948	1.0
278.218934386	2.5	C	0.5001000648699999	279.218927745	1.0
280.718905257	2.5	A	0.550125254653	281.718894692	1.0
283.21886073400003	2.5	C	0.600059586139	284.218849867	1.0
285.718814097	2.5	B	0.633442916689	286.718810475	1.0
288.218769573	2.5	A	0.700021220393	289.218760518	1.0
290.718735917	2.5	BL	0.933480557986	291.718741652	1.0
293.218693808	2.5	BL	0.7667851648019999	294.21870044900004	1.0
295.71865079400004	2.5	B	0.766715738197	296.71863207900003	0.0
298.218599025	2.5	C	0.700050198455	299.218590875	0.0
300.71856989599996	2.5	A	0.55014578078	301.71854997400004	1.0
303.218516619	2.5	C	0.633422390563	304.218507262	1.0
305.718489301	2.5	B	0.733487259162	306.718477831	1.0
308.21844206099996	2.5	A	0.650047647781	309.218433609	1.0
310.718393311	2.5	B	0.8000851834280001	311.71837127599997	1.0
313.218351504	2.5	C	0.883421258606	314.21833943	1.0
315.718307283	2.5	C	0.950083176092	316.71830034	1.0
318.21827604099997	2.5	BL	0.733483335049	319.218282983	0.0
320.71821733	2.5	A	0.533405516881	321.718222462	1.0
323.21818427700003	2.5	BL	0.80014253584	324.218190314	1.0
325.718151526	2.5	B	0.666752896523	326.718123755	1.0
328.21811183200003	2.5	A	0.516766374341	329.21812783	1.0
330.718048291	2.5	B	0.683475350988	331.71804708400003	1.0
333.218025501	2.5	BL	n/a	334.21803335	n/a
335.717983694	2.5	BL	0.43339226545299997	336.717978563	1.0
338.217939473	2.5	BL	0.666817191597	339.217947321	1.0
340.717891931	2.5	C	0.683453919299	341.717891629	0.0
343.217828088	2.5	C	0.55012193425	344.2178298990001	1.0
345.71783427599996	2.5	B	0.450085440003	346.717795035	0.0
348.217765001	2.5	A	0.583408067554	349.21774658699997	1.0
350.71771112	2.5	BL	0.833451610109	351.717721684	1.0
353.217666898	2.5	C	0.5000876888229999	354.217664181	1.0
355.71764803199994	2.5	B	0.7167460896979999	356.717629317	1.0
358.2176240340001	2.5	BL	0.6667598391830001	359.217592038	1.0
360.717555061	2.5	A	0.516767279905	361.717553551	1.0
363.217516876	2.5	B	0.650038290281	364.217487596	1.0
365.717475673	2.5	A	0.600145614759	366.717453336	1.0
368.217449864	2.5	C	0.6167799276210001	369.217421792	1.0
370.717376061	2.5	A	0.600165839032	371.71737968300005	1.0
373.217346026	2.5	C	0.616784757298	374.21733002800005	1.0
375.717317803	2.5	BL	0.666770404101	376.71732172699996	1.0
378.21727629800006	2.5	BL	0.633475215154	379.217278109	1.0
380.717229661	2.5	B	0.8334491952699999	381.71722302	1.0
383.21718091199995	2.5	C	0.5667997142050001	384.217153745	1.0
385.717139105	2.5	B	0.8335026235709999	386.717155405	1.0
388.21709880699996	2.5	A	0.700069215309	389.21710031599997	1.0
390.71706786699997	2.5	C	0.616723178917	391.717056095	1.0
393.21701609900003	2.5	B	0.8336731715369999	394.217007043	1.0
395.717001761	2.5	BL	0.633480044831	396.71698908300004	0.0
398.216940635	2.5	A	0.633403071855	399.216927957	1.0
