onset	duration	trial_type	response_time	feedback_onset	correct/incorrect
0.7092899460600001	2.5	A	0.733435239208	1.7092830034200002	0.0
3.2259032298699997	2.5	B	0.7334141094359999	4.22590745582	1.0
5.7258511600699995	2.5	BL	0.7001796936239999	6.72569721458	1.0
8.22564182439	2.5	BL	0.7000900430179999	9.225643635519999	1.0
10.725598508400001	2.5	C	0.6667442431189999	11.725573152599999	0.0
13.225533157000001	2.5	B	0.966751095202	14.2255204791	1.0
15.7254828983	2.5	C	n/a	16.7254656926	n/a
18.2254290174	2.5	A	0.800021491998	19.2253976246	0.0
20.725377853199998	2.5	C	0.733443992973	21.7253603456	0.0
23.2253269908	2.5	BL	0.766814846744	24.2253294056	1.0
25.7252725061	2.5	B	0.783403831312	26.725257715300003	0.0
28.2251980992	2.5	A	0.950065517389	29.225205343699997	0.0
30.7251656499	2.5	C	0.950085137893	31.7251517646	1.0
33.2251175042	2.5	BL	0.600086752811	34.2251217301	1.0
35.725064227	2.5	BL	0.733494704426	36.7250738863	1.0
38.2250049127	2.5	A	0.666850193835	39.2249883107	1.0
40.7249606911	2.5	B	0.766773794614	41.7249468058	1.0
43.2249059046	2.5	BL	0.666785597103	44.2249107343	1.0
45.7248529292	2.5	C	0.850247565473	46.724840553199996	1.0
48.224803576099994	2.5	A	0.600099430672	49.2247887853	1.0
50.72475211	2.5	B	n/a	51.7247394322	n/a
53.2246997384	2.5	BL	0.600093393596	54.2247054736	1.0
55.7246473667	2.5	A	0.633390293164	56.7246337833	1.0
58.2245952969	2.5	B	0.666723717053	59.2245563578	1.0
60.7245450383	2.5	C	0.600141388366	61.724531454799994	1.0
63.224493270299995	2.5	C	0.5000913108030001	64.224479385	1.0
65.7244276171	2.5	B	0.8834626626340001	66.7244249004	1.0
68.2243873196	2.5	A	0.56676117712	69.2243640769	1.0
70.7243367591	2.5	A	0.5501160477310001	71.72432257189999	1.0
73.2242843874	2.5	BL	0.600096713988	74.2242889152	1.0
75.72423503430001	2.5	B	0.866720939997	76.7242217527	1.0
78.2241829645	2.5	C	0.633414441476	79.22416455140001	1.0
80.7241299892	2.5	A	0.550148044244	81.7241155002	1.0
83.2240646378	2.5	B	0.966751698908	84.22405920439999	1.0
85.7240318866	2.5	BL	0.5334256402549999	86.7240349052	1.0
88.22398011870001	2.5	C	0.5834093250519999	89.22396261120001	1.0
90.7239238229	2.5	C	0.500112742431	91.7239111451	1.0
93.2238799032	2.5	B	0.8500486437549999	94.2238581697	1.0
95.723828739	2.5	A	0.516742175419	96.72380821290001	1.0
98.22376821729999	2.5	A	0.600100939942	99.22376399129999	1.0
100.723716751	2.5	B	0.783445487148	101.723708601	0.0
103.22367041700001	2.5	C	0.533403604919	104.223654418	1.0
105.723634345	2.5	A	0.583380648932	106.723601141	1.0
108.223570805	2.5	C	0.600067132305	109.223552995	1.0
110.723514509	2.5	B	0.783379682998	111.72350122700001	1.0
113.22346606200001	2.5	C	0.7167952413349999	114.22345187399999	1.0
115.723415199	2.5	A	0.533399982674	116.723400106	1.0
118.22336192200001	2.5	B	0.8168130205290001	119.223350451	1.0
120.723313173	2.5	A	0.633381539399	121.723297476	1.0
123.22327649700001	2.5	C	0.6500136890739999	124.223250236	1.0
125.723214466	2.5	BL	0.633418969284	126.72321778700001	1.0
128.223161189	2.5	BL	0.633476623378	129.22316783	1.0
130.72310761	2.5	B	0.7833911534469999	131.723109119	1.0
133.22307002899998	2.5	BL	0.8000882017100001	134.223065501	1.0
135.722991094	2.5	C	0.566765704931	136.722997433	1.0
138.222938421	2.5	B	0.950131321537	139.222924536	1.0
140.722909594	2.5	A	0.5167666255860001	141.722893897	1.0
143.222859335	2.5	C	0.483497496574	144.222845752	1.0
145.722810586	2.5	A	0.516747608788	146.72279700200002	1.0
148.22274100799999	2.5	B	0.550114538461	149.222747046	1.0
150.722716106	2.5	BL	n/a	151.72272003	n/a
153.22265709299998	2.5	A	0.5501136329	154.22264683	1.0
155.72260804200002	2.5	B	0.7500888205089999	156.72260743799998	1.0
158.222558689	2.5	C	0.550059601052	159.222545407	1.0
160.722512354	2.5	BL	0.666726735593	161.722515373	1.0
163.22244126799998	2.5	B	0.750063464782	164.22244609700002	1.0
165.722408516	2.5	A	0.500137796304	166.722393726	1.0
168.222369728	2.5	C	0.700051103864	169.222342863	1.0
170.722308603	2.5	A	0.550157703568	171.722296529	1.0
173.22224234599997	2.5	C	0.500071992155	174.22224476099998	1.0
175.72220325599997	2.5	B	0.750060446242	176.72217608900002	0.0
178.22218348400003	2.5	C	0.5167666255860001	179.222181673	1.0
180.722130509	2.5	B	0.750098479833	181.72216552400002	1.0
183.222096249	2.5	A	0.616773236186	184.222037085	1.0
185.72204568799998	2.5	BL	0.9001120179819999	186.722023351	1.0
188.221982148	2.5	B	0.9501077769349999	189.221967961	1.0
190.721944567	2.5	A	n/a	191.72193188900002	n/a
193.221883442	2.5	BL	0.7001009097579999	194.22190728799998	1.0
195.721844351	2.5	C	0.500050862382	196.72183107	1.0
198.221780509	2.5	C	0.5667952866120001	199.221781415	1.0
200.721745645	2.5	B	0.6834120115510001	201.72173115599998	1.0
203.221680596	2.5	A	0.633433156416	204.221658259	1.0
205.721646335	2.5	B	0.7834385445090001	206.721629733	1.0
208.221595775	2.5	A	0.483473650116	209.22157041900002	1.0
210.72152589599997	2.5	BL	0.600116636346	211.72154793099998	0.0
213.221497069	2.5	BL	0.600050228488	214.221486202	0.0
215.721428397	2.5	C	0.600156481059	216.72141753	1.0
218.22139594700002	2.5	BL	0.6000924880340001	219.221385081	1.0
220.721366215	2.5	B	0.716732757577	221.721333917	1.0
223.221284865	2.5	BL	0.8668181369499999	224.221285469	1.0
225.721246379	2.5	C	0.550138083065	226.721234305	1.0
228.221179216	2.5	A	0.500093423781	229.221167444	1.0
230.72114586200001	2.5	A	0.5833960434809999	231.721133787	1.0
233.22108051	2.5	BL	0.6334666621989999	234.221097112	0.0
235.72104021299998	2.5	C	0.550108803236	236.72103387400003	1.0
238.220994482	2.5	BL	0.7000918541399999	239.220981502	0.0
240.720903473	2.5	B	0.7334696505509999	241.720902265	1.0
243.220881588	2.5	BL	0.7334859506649999	244.220859553	0.0
245.72084763	2.5	C	0.500133570349	246.72080355900002	1.0
248.22079737099997	2.5	A	0.533386399249	249.220780166	1.0
250.72073202	2.5	BL	0.633424704507	251.720738057	1.0
253.22069594799999	2.5	B	0.716766867068	254.220681157	0.0
255.720630295	2.5	BL	0.600140482804	256.720607052	1.0
258.220599657	2.5	BL	0.533383984417	259.220596035	1.0
260.720546983	2.5	A	0.516750929182	261.720533098	1.0
263.220504875	2.5	B	0.783362779181	264.220483745	1.0
265.720434694	2.5	BL	0.6334298360230001	266.720417488	0.0
268.22038292599996	2.5	C	0.6167768584309999	269.220368135	1.0
270.72032663	2.5	B	0.783447600126	271.720333573	1.0
273.220303538	2.5	A	0.5167554569889999	274.220270636	1.0
275.720249054	2.5	C	0.583371895169	276.72023184799997	1.0
278.220198191	2.5	A	0.58340540095	279.220236225	1.0
280.72014793299996	2.5	BL	0.7334675375749999	281.720137971	1.0
283.2201019	2.5	B	0.46671472180600004	284.220068998	1.0
285.72004651	2.5	C	0.600148632859	286.72003534099997	1.0
288.219996855	2.5	A	0.616769613938	289.219957916	1.0
290.719932711	2.5	BL	0.666818499176	291.71993572900004	1.0
293.219883358	2.5	C	0.583430454824	294.21988305599996	1.0
295.719850908	2.5	BL	0.666801595358	296.719840042	0.0
298.21979853700003	2.5	BL	0.566810983015	299.219789783	1.0
300.719751297	2.5	B	0.7334159205580001	301.719735298	1.0
303.219698623	2.5	BL	0.600078904608	304.219687153	1.0
305.719651081	2.5	C	0.550141403459	306.719620896	1.0
308.219599313	2.5	BL	0.6334476454029999	309.219603841	0.0
310.719552677	2.5	B	0.7000960800939999	311.719535471	1.0
313.21950090900003	2.5	BL	0.5334485811509999	314.21949939900003	1.0
315.719452159	2.5	A	0.600135954994	316.719435557	1.0
318.219396769	2.5	BL	0.700069215098	319.219390732	0.0
320.719333833	2.5	B	0.9167097563109999	321.719310892	0.0
323.219284178	2.5	A	0.533421112446	324.219288102	1.0
325.719233617	2.5	C	0.5833957416269999	326.719220939	1.0
328.21920358299997	2.5	B	0.5834108343209999	329.219186679	1.0
330.719149702	2.5	A	0.5333794566100001	331.719135515	1.0
333.219094915	2.5	C	0.6334062914190001	334.21908706700003	1.0
335.719035903	2.5	C	0.500104290522	336.719038016	1.0
338.218987455	2.5	A	0.4834751593860001	339.218973268	1.0
340.718929952	2.5	B	0.7667553815260001	341.718920896	1.0
343.21890203099997	2.5	A	0.466720457032	344.21887365599997	1.0
345.718851772	2.5	C	0.583360726576	346.718822794	1.0
348.21877223300004	2.5	B	0.700083100377	349.218759556	1.0
350.718738275	2.5	C	0.58338759157	351.718736766	1.0
353.21867896099997	2.5	BL	0.63350077169	354.21870763699997	0.0
355.718651039	2.5	B	0.533357723129	356.7186217590001	1.0
358.21860108199996	2.5	A	0.583415663983	359.218592329	1.0
360.718541768	2.5	BL	0.7334826302699999	361.718544183	1.0
363.218477624	2.5	C	n/a	364.21846705900003	n/a
365.718459362	2.5	B	0.7334524448819999	366.718443364	1.0
368.21841031099996	2.5	A	0.550070769646	369.218380729	1.0
370.71834013	2.5	BL	0.633470284447	371.71831628300004	1.0
373.218304964	2.5	C	0.600042380287	374.218292889	1.0
375.71825983599996	2.5	BL	0.600135049433	376.71826134599996	1.0
378.218207465	2.5	A	0.45006174421499995	379.218195692	1.0
380.71816203599997	2.5	B	0.6834225764380001	381.718128832	0.0
383.218071932	2.5	C	0.516796207266	384.218095175	1.0
385.718044313	2.5	B	0.666760543229	386.718036766	1.0
388.21800160000004	2.5	BL	0.700071328076	389.218004921	1.0
390.717962208	2.5	A	0.583374008145	391.717930514	1.0
393.217893235	2.5	B	0.666778654462	394.217880255	1.0
395.717855956	2.5	C	0.466754868376	396.717847202	0.0
398.217797547	2.5	A	0.41669843678900004	399.21778245400003	1.0
