onset	duration	trial_type	response_time	feedback_onset	correct/incorrect
0.701500908128	2.5	C	0.700075855884	1.70151690639	1.0
3.21812988834	2.5	B	0.5667279731930001	4.218120530859999	1.0
5.71801925888	2.5	BL	0.633544540504	6.71786742637	1.0
8.21783709006	2.5	A	0.633440099056	9.21782078995	1.0
10.7177892462	2.5	C	0.566782910602	11.7177768702	1.0
13.217735969000001	2.5	BL	0.600072565676	14.2177389875	1.0
15.7176730325	2.5	B	0.800099672157	16.7176606565	0.0
18.2176300183	2.5	A	0.550174305532	19.217620359	1.0
20.7175870041	2.5	C	0.5667747605479999	21.7175716096	1.0
23.217532519499997	2.5	A	0.583368272923	24.2175207472	1.0
25.7174677718	2.5	B	0.700071328076	26.7174683755	1.0
28.217429285399998	2.5	C	0.700090646726	29.2174129853	1.0
30.717390497199997	2.5	A	0.583371291461	31.717370876700002	1.0
33.217327258800005	2.5	B	0.733447011509	34.217314581	1.0
35.7172851502	2.5	A	0.5667231435310001	36.71725255	1.0
38.2172237229	2.5	C	0.516724064186	39.2172131581	1.0
40.7171701439	2.5	B	0.550057789927	41.717151428899996	1.0
43.2171174704	2.5	C	0.633441306472	44.2171093203	1.0
45.7170765692	2.5	B	0.56679981442	46.7170551375	1.0
48.2170151419	2.5	A	0.616748484164	49.2170015585	1.0
50.7169657888	2.5	A	0.516781416425	51.7169537146	1.0
53.2169146246	2.5	B	0.633439193494	54.2168883633	1.0
55.716863158500004	2.5	C	0.500074708838	56.7168504806	0.0
58.2168128998	2.5	A	0.416760014985	59.2167884496	1.0
60.7167617356	2.5	BL	0.600091884326	61.7167644522	1.0
63.216706043500004	2.5	BL	0.6334886975330001	64.2167123824	1.0
65.7166600108	2.5	C	0.583517086892	66.7166352588	1.0
68.21659647050001	2.5	B	0.5167660218760001	69.2165801704	1.0
70.7165434952	2.5	A	0.53342292357	71.7165305155	1.0
73.2164911235	2.5	B	0.616758747197	74.2164790494	1.0
75.71644539270001	2.5	BL	0.600090978764	76.7164459964	1.0
78.2163903043	2.5	BL	0.566815510821	79.2164111323	1.0
80.7163569495	2.5	C	0.600074678654	81.7163180103	1.0
83.2163112186	2.5	C	0.600106373313	84.21632117979999	1.0
85.7162866175	2.5	BL	0.500069577323	86.7162582433	1.0
88.2162176439	2.5	B	0.683482343509	89.21621854950001	0.0
90.7161698001	2.5	A	0.483423844224	91.7161547074	1.0
93.2161313137	2.5	A	0.600068339723	94.2161020339	1.0
95.7160608308	2.5	C	0.533383984417	96.7160538882	1.0
98.2160274759	2.5	B	0.600076187922	99.21597676450001	1.0
100.715959106	2.5	BL	0.6668106509749999	101.715953975	1.0
103.215926959	2.5	C	0.66672975413	104.215896773	1.0
105.71588122799999	2.5	BL	0.600056265566	106.715853759	1.0
108.215809236	2.5	BL	0.600140784658	109.21579927399999	1.0
110.715749318	2.5	B	0.666730659692	111.71572034	1.0
113.21570690700001	2.5	A	0.5834546031360001	114.215693927	1.0
115.71565966700001	2.5	B	0.9333874859219999	116.71565725200001	1.0
118.21557831700001	2.5	C	0.533399378966	119.215575299	1.0
120.71557273299999	2.5	A	0.566777175378	121.715535605	1.0
123.215503759	2.5	BL	0.566822453464	124.21551523	1.0
125.715447766	2.5	B	0.750097876125	126.715431164	1.0
128.215408072	2.5	BL	0.966730569136	129.215410487	1.0
130.732013507	2.5	A	0.550137781211	131.731997207	1.0
133.231969889	2.5	BL	0.766764135289	134.23198468	1.0
135.731912688	2.5	C	0.583376121123	136.731897294	1.0
138.231863033	2.5	C	0.583425323308	139.231834055	1.0
140.731809756	2.5	BL	0.66680099165	141.731807945	1.0
143.231758592	2.5	B	0.7168788548639999	144.231752253	0.0
145.731710144	2.5	A	0.516799225805	146.73170139	1.0
148.231637246	2.5	A	0.48366864773400003	149.23165143399999	1.0
150.731606306	2.5	B	0.7334518411740001	151.73155619899998	1.0
153.23155484	2.5	C	0.616781989949	154.23155152	1.0
155.731525108	2.5	C	0.850052266002	156.731497639	0.0
158.231474245	2.5	BL	0.666799180526	159.23146519	1.0
160.731402857	2.5	A	0.5501081995279999	161.731401046	1.0
163.231347165	2.5	B	0.666821517714	164.231325733	1.0
165.73131049	2.5	BL	0.7001166061599999	166.731312603	0.0
168.231273513	2.5	C	0.666753902442	169.231261438	1.0
170.731208463	2.5	BL	0.6001474254429999	171.731193974	0.0
173.231148545	2.5	A	0.566809171891	174.23114401700005	1.0
175.73110764400002	2.5	BL	0.633422893383	176.731101003	1.0
178.23105587599997	2.5	B	0.666778050754	179.23101844599998	1.0
180.73100622099997	2.5	A	0.48342354236999996	181.730998675	1.0
183.230946605	2.5	C	0.5668188312160001	184.230931512	1.0
185.730895139	2.5	B	0.516766927438	186.730869783	1.0
188.230854841	2.5	A	0.6500324040150001	189.23085635	1.0
190.73079703599998	2.5	BL	0.63343798608	191.730806092	0.0
193.23074617400002	2.5	B	0.733448218925	194.23075221099998	1.0
195.730687765	2.5	C	0.633389689456	196.730688671	1.0
198.230655014	2.5	BL	0.6000755842159999	199.230640223	1.0
200.730605661	2.5	A	0.516760588507	201.73058090900003	1.0
203.230552987	2.5	B	0.733419542807	204.230533669	1.0
205.73050423799998	2.5	C	0.583389704549	206.73049095599998	1.0
208.23045247	2.5	B	0.483441351751	209.230428322	1.0
210.730401608	2.5	C	0.616755426803	211.730388628	1.0
213.23035165099998	2.5	A	0.500088895973	214.230339577	1.0
215.730292035	2.5	C	0.7500927446089999	216.73025732099998	1.0
218.23023724799998	2.5	A	n/a	219.230228192	n/a
220.730201177	2.5	B	0.6833760909379999	221.73018185799998	0.0
223.23032871	2.5	BL	0.59998774473	224.230145183	1.0
225.73007862400001	2.5	A	0.500167981692	226.73008617	1.0
228.23004979700002	2.5	B	0.550139592335	229.23003893	1.0
230.73001644200002	2.5	C	0.600139879096	231.72998022	1.0
233.229964674	2.5	BL	0.666810349121	234.229948072	1.0
235.72989087099998	2.5	A	0.566752725212	236.72988483400002	1.0
238.229849064	2.5	B	0.8834424384239999	239.22982672700002	1.0
240.72979427799999	2.5	BL	0.60005807669	241.729803635	1.0
243.229766356	2.5	C	0.5834060046580001	244.229747037	1.0
245.72969044	2.5	A	0.600108788145	246.729688025	1.0
248.229665839	2.5	BL	0.600072565676	249.229641992	1.0
250.729592337	2.5	B	0.500163152032	251.72958177200002	0.0
253.22956622700002	2.5	C	0.566749706673	254.22955113400002	1.0
255.729492122	2.5	B	0.550106388406	256.729479444	1.0
258.22943975	2.5	C	0.583424417746	259.229427978	1.0
260.729398245	2.5	A	0.5001178739459999	261.72937560599996	1.0
263.229362777	2.5	BL	0.60009218618	264.229352514	0.0
265.72931583900004	2.5	BL	0.666777447046	266.729293502	0.0
268.229245054	2.5	C	0.5500804289710001	269.229237206	1.0
270.729191777	2.5	B	0.550107897676	271.72917668400004	1.0
273.229150272	2.5	BL	0.533470616485	274.229146348	1.0
275.729098202	2.5	A	0.6167421452340001	276.72907163900004	1.0
278.22904251	2.5	B	0.7334122983140001	279.22905247200003	1.0
280.729001005	2.5	C	0.650139562149	281.72898802599997	1.0
283.22912129400004	2.5	A	0.533453712667	284.22908869400004	1.0
285.72905715	2.5	A	0.566746386281	286.729021532	1.0
288.228988177	2.5	BL	0.633515562531	289.228867133	1.0
290.728790915	2.5	C	0.616717996922	291.72878548200003	1.0
293.228784727	2.5	B	0.566730991733	294.228726168	1.0
295.728702472	2.5	C	0.883439419886	296.72868677599996	1.0
298.228644063	2.5	B	0.6500637968199999	299.228638932	1.0
300.728601653	2.5	BL	0.733478102462	301.72860286	0.0
303.228549583	2.5	BL	0.633484169724	304.228552903	0.0
305.728504154	2.5	A	0.533388814079	306.72848725	1.0
308.228442727	2.5	BL	0.666785597101	309.228451179	1.0
310.728392166	2.5	A	0.5334503922730001	311.72840575	1.0
313.228351567	2.5	BL	0.566832716495	314.228347945	1.0
315.728301912	2.5	BL	0.600133540163	316.728296478	1.0
318.228246522	2.5	C	0.600029400568	319.228236862	1.0
320.728169096	2.5	B	0.516787453504	321.728190226	1.0
323.228143589	2.5	A	0.533471220193	324.22813513799997	1.0
325.728103292	2.5	B	0.7000903448720001	326.72808578400003	1.0
328.228050618	2.5	C	0.633430439731	329.228037337	1.0
330.728001265	2.5	C	0.683376392792	331.727981645	1.0
333.227965798	2.5	A	0.516697802896	334.227926557	1.0
335.727899842	2.5	B	0.9500827230600001	336.727887165	1.0
338.227867091	2.5	C	0.93338265626	339.227828454	1.0
340.72780174	2.5	B	0.566752725214	341.72776431	1.0
343.22792353799997	2.5	BL	0.666623501558	344.227753292	1.0
345.727700015	2.5	BL	0.600200249875	346.727703637	0.0
348.227650662	2.5	A	0.600085847249	349.22763738	1.0
350.727601007	2.5	BL	0.8001630614740001	351.727636324	1.0
353.22752931699995	2.5	C	0.55010819953	354.22753082599996	1.0
355.72749234	2.5	A	0.516757268113	356.72747724699997	1.0
358.227470153	2.5	B	0.61676901023	359.227428196	1.0
360.72739846300004	2.5	A	0.516728893848	361.72735922199996	1.0
363.227322245	2.5	C	0.600127201233	364.22734911	1.0
365.727292814	2.5	B	0.516752136598	366.727285872	1.0
368.227240744	2.5	C	0.533472729463	369.227227765	1.0
370.727195919	2.5	B	0.7334448985330001	371.72718958	1.0
373.227151094	2.5	BL	0.566811586721	374.22714747199996	1.0
375.727098119	2.5	A	0.533393643742	376.72710294800004	0.0
378.22706627300005	2.5	BL	0.566777175378	379.22705963199996	1.0
380.726993677	2.5	C	0.550001645104	381.726980697	1.0
383.226950663	2.5	BL	0.566815812677	384.22695247400003	0.0
385.72690010199995	2.5	A	0.516757569969	386.72690734699995	1.0
388.226865238	2.5	B	0.90007398439	389.22682629900004	1.0
390.726802604	2.5	C	0.583388195279	391.726779965	1.0
393.22676351300004	2.5	BL	0.86677617926	394.226765325	0.0
395.726690314	2.5	B	0.716761433698	396.72667824	0.0
398.226645489	2.5	A	0.550088579026	399.226631	1.0
