onset	duration	trial_type	response_time	feedback_onset	correct/incorrect
0.713661696038	2.5	A	0.616776556577	1.71364781076	0.0
3.23028011136	2.5	BL	0.833315373026	4.23011409172	1.0
5.7300852646700005	2.5	BL	0.70011811543	6.730088585060001	1.0
8.23001297066	2.5	BL	0.6001474254429999	9.23001659291	1.0
10.7299799177	2.5	B	0.56674789555	11.7299494304	0.0
13.229867175199999	2.5	C	0.683488682441	14.2298940402	1.0
15.7298353296	2.5	C	0.5834386048800001	16.7298175203	1.0
18.2297859765	2.5	B	0.7500990835410001	19.2297784302	1.0
20.7297414531	2.5	A	0.583419889938	21.7297305863	0.0
23.2296911944	2.5	A	0.9000371582150001	24.2296785165	1.0
25.729637011599998	2.5	C	n/a	26.729622824499998	n/a
28.229602751199998	2.5	B	0.600138067972	29.229597317800003	0.0
30.729564566700002	2.5	A	0.616729165516	31.7295383054	1.0
33.2295115913	2.5	BL	0.600140482803	34.2294919708	1.0
35.7294592197	2.5	C	0.61674576748	36.7294356751	0.0
38.2294077536	2.5	B	0.900051345347	39.2293905479	1.0
40.7293481375	2.5	C	0.500059917998	41.7293333466	0.0
43.22929486020001	2.5	BL	0.6001474254429999	44.2292984825	1.0
45.7292446016	2.5	A	0.7833842108079999	46.7292301126	0.0
48.229198870699996	2.5	B	0.7000743466150001	49.2291701946	0.0
50.7291413675	2.5	C	n/a	51.729126878500004	n/a
53.22908839220001	2.5	A	0.666725226322	54.2290458308	0.0
55.7290363224	2.5	B	0.78339447384	56.7290305872	0.0
58.2289927045	2.5	C	0.950044991323	59.2289640284	1.0
60.728935201300004	2.5	B	0.766791000287	61.728923429	1.0
63.228872566599996	2.5	A	0.900068249166	64.2288686425	0.0
65.7288422303	2.5	A	0.7501331930320001	66.7288183839	1.0
68.22878865130001	2.5	B	0.550076806724	69.2287820105	1.0
70.72873839260001	2.5	C	0.633420478553	71.72873416659999	0.0
73.2286612689	2.5	BL	0.833410457004	74.2286935673	1.0
75.728630027	2.5	A	0.616750898996	76.7286167455	0.0
78.2285842962	2.5	C	0.7000894393100001	79.22857192020001	0.0
80.7285373579	2.5	B	0.583408721344	81.7285228689	0.0
83.2284837788	2.5	BL	0.700130793293	84.2284680824	0.0
85.7284099755	2.5	BL	0.866849831611	86.7284428776	1.0
88.22838537450001	2.5	BL	0.80009061654	89.22838688370001	1.0
90.7283248527	2.5	BL	0.6668344974329999	91.72834749180001	1.0
93.22826976440001	2.5	C	0.7167801486390001	94.228268557	1.0
95.728233391	2.5	A	0.766649732663	96.72822282610001	1.0
98.2281792082	2.5	B	0.8001775504620001	99.22817136	1.0
100.728121705	2.5	A	0.666759637666	101.72810117899999	1.0
103.228070843	2.5	C	0.5334485811509999	104.228050618	1.0
105.728031451	2.5	B	0.6501129990060001	106.728018169	1.0
108.22796942	2.5	BL	0.766814243037	109.22798149399999	1.0
110.727933046	2.5	BL	0.633416856306	111.727933348	1.0
113.227882486	2.5	A	0.7834177165899999	114.227876147	0.0
115.72783071799999	2.5	B	0.866751427241	116.727820153	1.0
118.22776959299999	2.5	C	0.550091295711	119.227758726	0.0
120.72772899299999	2.5	B	0.7667553815270001	121.727719636	0.0
123.227670886	2.5	A	0.766782850231	124.22766545299999	0.0
125.727622741	2.5	C	0.700327602034	126.72761821299999	0.0
128.227584556	2.5	BL	0.966774337951	129.227599045	1.0
130.727509545	2.5	B	0.633413535913	131.727518903	0.0
133.227482831	2.5	A	0.783326858567	134.22746804	1.0
135.727434686	2.5	C	0.8501355776780001	136.727418084	1.0
138.227378088	2.5	A	0.683465741545	139.22736993799998	1.0
140.727323603	2.5	C	0.9667619619419999	141.72732088700002	1.0
143.227273647	2.5	B	0.483445275851	144.22724768700002	1.0
145.727224595	2.5	C	0.716740303925	146.727204975	1.0
148.227181279	2.5	A	0.850053171564	149.22716830000005	1.0
150.727134643	2.5	B	0.533424130985	151.727121663	0.0
153.227083479	2.5	C	0.750058936973	154.227062651	1.0
155.727037144	2.5	BL	0.8001014832800001	156.727031711	1.0
158.226987791	2.5	BL	0.8000954462019999	159.226990508	1.0
160.72691579899998	2.5	A	0.7667674556820001	161.726914591	0.0
163.226885161	2.5	B	0.883416780843	164.226856183	1.0
165.726839128	2.5	C	0.950082421206	166.726827356	1.0
168.226959719	2.5	A	0.466759698038	169.226938287	1.0
170.726882595	2.5	BL	0.83329545067	171.726735894	1.0
173.22668895599998	2.5	BL	0.966779771322	174.226704954	1.0
175.72663145200005	2.5	B	0.8167490275020001	176.726626019	1.0
178.226591457	2.5	A	0.850055888249	179.22657877900002	1.0
180.72654542400002	2.5	BL	0.666808537998	181.726519163	0.0
183.22649486400002	2.5	BL	0.7668169597210001	184.22649426	0.0
185.72644400099998	2.5	BL	0.933475929114	186.726448529	1.0
188.226391931	2.5	BL	0.866718223312	189.226398874	1.0
190.726328995	2.5	BL	0.966768300874	191.72636370799998	1.0
193.22629564	2.5	C	0.816805474181	194.22628326400002	1.0
195.72624840000003	2.5	BL	n/a	196.72622244	n/a
198.226197839	2.5	B	0.8167638183429999	199.22617701099998	1.0
200.72613641200002	2.5	A	0.7834014164800001	201.72613460099998	0.0
203.226099435	2.5	B	0.733423165053	204.226084946	1.0
205.726042837	2.5	BL	0.766811526351	206.72604585599998	1.0
208.226007068	2.5	C	0.750064370343	209.22599046599998	0.0
210.72595258299998	2.5	BL	0.700114795036	211.725952281	1.0
213.22589296700002	2.5	C	0.7834436760250001	214.225871535	1.0
215.72584391599997	2.5	B	0.8001419317020001	216.725840897	1.0
218.225792449	2.5	A	0.9000622120880001	219.225766792	0.0
220.725930849	2.5	B	0.750091839048	221.725901872	0.0
223.225872743	2.5	BL	0.6999693014589999	224.225708534	1.0
225.72565737	2.5	C	0.7501241374150001	226.72564227700002	1.0
228.22558266099998	2.5	A	0.733349512702	229.22559171700001	1.0
230.725559267	2.5	C	0.516779605302	231.725536628	1.0
233.225504179	2.5	B	0.833421625598	234.22549814200002	0.0
235.72545271299998	2.5	A	0.750149794996	236.725450902	1.0
238.22540939700002	2.5	C	0.600090978764	239.225396719	1.0
240.725352799	2.5	B	n/a	241.725368496	n/a
243.225301937	2.5	A	0.8000534885100001	244.22529590000002	1.0
245.725262847	2.5	BL	0.766822996799	246.725259225	1.0
248.22519991	2.5	C	0.8500631327420001	249.225185119	1.0
250.725166857	2.5	A	0.7001114746439999	251.725142105	1.0
253.225115089	2.5	B	0.866779197799	254.22510029900002	1.0
255.72506573599998	2.5	BL	0.833423134868	256.725071471	1.0
258.225015176	2.5	A	0.6833881650939999	259.22500612	0.0
260.724959786	2.5	B	0.650120847207	261.724953145	1.0
263.22491888400003	2.5	C	0.950054348794	264.224904395	0.0
265.72487073900004	2.5	B	0.566755441898	266.72485655099996	0.0
268.224810821	2.5	A	0.8334152866660001	269.224789993	1.0
270.724775051	2.5	BL	0.633426515631	271.724779277	1.0
273.224726905	2.5	C	0.54999047651	274.224689777	1.0
275.72467694799997	2.5	BL	0.8668148165590001	276.724675741	0.0
278.224622464	2.5	A	0.61672946737	279.224611295	1.0
280.724574318	2.5	B	0.9000724751200001	281.72455620700003	1.0
283.224521946	2.5	BL	0.8334744500300001	284.224521946	1.0
285.724476517	2.5	C	0.6834086911589999	286.72445538799997	1.0
288.224408148	2.5	BL	0.7334660283059999	289.224427164	1.0
290.724376906	2.5	C	0.8834373069079999	291.724355172	1.0
293.224326345	2.5	A	0.550096427227	294.224334797	1.0
295.724282425	2.5	BL	0.666798274965	296.724268842	0.0
298.22421798	2.5	B	0.8667894608319999	299.224215565	1.0
300.724179795	2.5	A	0.46677630000200004	301.724169532	1.0
303.224132253	2.5	B	0.850057397518	304.224119575	0.0
305.724087126	2.5	C	0.633372785638	306.724063581	1.0
308.224032339	2.5	B	0.700088835601	309.22403928200004	1.0
310.72397453400004	2.5	C	0.783388134908	311.723960951	1.0
313.223934237	2.5	BL	0.70013833964	314.2239282	1.0
315.723885487	2.5	A	0.716648842194	316.723861943	1.0
318.223836134	2.5	C	0.9000534583249999	319.223822249	1.0
320.723789498	2.5	B	0.583416871399	321.723774103	1.0
323.223738334	2.5	BL	0.700166713907	324.223734108	0.0
325.723691094	2.5	BL	0.666812160244	326.723683547	0.0
328.223636307	2.5	A	0.750077350061	329.223617592	1.0
330.72358001099997	2.5	C	0.666739715309	331.723572163	1.0
333.223533375	2.5	A	0.700086118916	334.223508925	1.0
335.723492474	2.5	B	0.850170592729	336.723468325	1.0
338.2234398	2.5	A	0.650093680356	339.22342018	1.0
340.723393466	2.5	B	0.45006295163099996	341.72336811	1.0
343.22333566099996	2.5	C	0.633500469836	344.22333022699996	1.0
345.723286308	2.5	C	0.683374883522	346.7232588390001	1.0
348.223240275	2.5	BL	0.933469590183	349.223249632	0.0
350.723185488	2.5	B	0.833409249588	351.723187299	1.0
353.223144889	2.5	BL	0.700149810089	354.22314790800004	0.0
355.72308980099996	2.5	BL	0.700142565595	356.72310278	0.0
358.223049201	2.5	A	0.6667167744129999	359.223026864	1.0
360.72300196099997	2.5	B	0.750139833818	361.723001357	1.0
363.222950495	2.5	A	0.86677617926	364.222967097	1.0
365.72289963300005	2.5	C	0.600111504829	366.722868844	1.0
368.222841828	2.5	B	0.933423708389	369.22283548900003	1.0
370.722807869	2.5	A	0.73337879253	371.722799417	1.0
373.222751875	2.5	C	0.750127457807	374.222739499	1.0
375.72288001199996	2.5	A	0.633385463501	376.722853449	1.0
378.22280862400004	2.5	C	0.633470888153	379.2228047	1.0
380.72275896900004	2.5	B	0.4500469533730001	381.722756554	1.0
383.222730745	2.5	BL	0.799897430045	384.222566839	0.0
385.722508128	2.5	A	0.700107248689	386.72250843	1.0
388.222455757	2.5	B	0.816779212892	389.22244458800003	1.0
390.722410328	2.5	C	0.60010999556	391.72239976300006	0.0
393.222357654	2.5	C	0.5834343789249999	394.22233743	1.0
395.722309206	2.5	A	0.5333969641340001	396.722289284	1.0
398.222261061	2.5	B	0.7334270891529999	399.22224777900004	1.0
