onset	duration	trial_type	response_time	feedback_onset	correct/incorrect
0.7134649400830001	2.5	A	0.733394608953	1.71343415135	0
3.2300229406299996	2.5	B	0.616717377525	4.22999788705	1
5.72995110025	2.5	C	0.7334051737139999	6.72992363186	0
8.22987925986	2.5	A	0.450134021552	9.22985963959	0
10.7297871955	2.5	B	0.5000498053069999	11.7297769326	1
13.229709016300001	2.5	C	0.650054031212	14.229681245999998	1
15.7296296296	2.5	B	0.583414229224	16.729608802	0
18.2295460171	2.5	A	0.583481843702	19.2295315283	1
20.7294633101	2.5	C	0.583413927376	21.729440067600002	1
23.2294252769	2.5	C	0.666692323945	24.229343777399997	1
25.7293060461	2.5	BL	0.600081499593	26.72913761360001	1
28.2290642639	2.5	BL	0.566754806967	29.2290585288	1
30.728956503400003	2.5	A	0.700125267891	31.728957408899998	0
33.228878626	2.5	B	0.7500863291969999	34.228876513	1
35.728820368899996	2.5	BL	0.6000881403	36.7288119171	1
38.228739473000005	2.5	C	0.433374988679	39.2287059676	1
40.7286591808	2.5	B	0.600045579402	41.7286335235	0
43.22857134229999	2.5	A	0.550096290261	44.2285532313	1
45.728491352	2.5	B	0.5668076307769999	46.7284693169	1
48.228419511599995	2.5	A	0.633429321742	49.2283908358	1
50.7283244287	2.5	BL	0.533459506776	51.72831778800001	1
53.22825138100001	2.5	BL	0.533482145553	54.2282504754	1
55.7281771258	2.5	C	0.483388873798	56.7281442241	1
58.2280889855	2.5	A	0.5999906426389999	59.2280636301	1
60.7280077877	2.5	B	0.566794047512	61.7279739805	1
63.2279277974	2.5	BL	0.566789821605	64.22792598630001	0
65.727845996	2.5	C	0.550049503456	66.7278191313	1
68.2277584594	2.5	BL	0.600135228953	69.2277684204	1
70.727686619	2.5	BL	0.5000845180969999	71.727678469	1
73.2276036101	2.5	B	0.766697455401	74.2275773492	1
75.727515168	2.5	BL	0.600090856953	76.72750943279999	0
78.2274499683	2.5	BL	0.566743638505	79.2274472517	1
80.7273612243	2.5	C	0.7000854236480001	81.7273742039	1
83.2272785173	2.5	A	0.36675420326499997	84.2272543693	1
85.7271997344	2.5	BL	0.66680129192	86.7272072806	0
88.2271230644	2.5	B	0.7167273385840001	89.2271073682	0
90.7270527333	2.5	BL	0.566760542122	91.7270340185	1
93.2269558393	2.5	A	0.616714660871	94.2269319931	1
95.72687645270001	2.5	C	0.400095384708	96.7268492861	1
98.226799179	2.5	C	0.533450451267	99.2267865013	1
100.726715868	2.5	A	0.533412116272	101.726690513	1
103.226635576	2.5	B	0.5667228108300001	104.22660146700001	1
105.726561321	2.5	C	0.350078481089	106.726529325	1
108.226481029	2.5	B	0.6667040961089999	109.226448429	1
110.726372966	2.5	BL	0.566820912192	111.726380211	1
113.22631531299999	2.5	A	0.683452866069	114.226279393	1
115.726237737	2.5	B	0.533406682966	116.726215702	1
118.226150804	2.5	C	0.316753599565	119.22612786399999	1
120.72610281	2.5	A	0.533377403483	121.726056929	1
123.225983579	2.5	A	0.500085423648	124.225964261	1
125.725901476	2.5	C	0.450053125662	126.72587823399999	1
128.226001389	2.5	BL	0.599970116815	129.22582541	1
130.725745721	2.5	B	0.483414531076	131.725718555	1
133.22567056100002	2.5	C	0.41676657913000004	134.225644903	1
135.725592079	2.5	A	0.433414531075	136.72556340399998	0
138.22551058	2.5	B	0.733461619729	139.225488847	1
140.725429986	2.5	BL	0.533451960519	141.725426967	1
143.225345166	2.5	C	0.500082103292	144.225325847	1
145.725263063	2.5	B	0.46680702707599997	146.725244952	0
148.225188506	2.5	A	0.5334383772519999	149.225163452	1
150.725114854	2.5	B	0.700092668054	151.72508285799998	1
153.22503456200002	2.5	A	0.516760542123	154.225003471	0
155.724949742	2.5	C	0.416781067946	156.724927103	1
158.224878505	2.5	B	0.766706812761	159.224842887	1
160.724789459	2.5	A	0.583412418124	161.724764104	1
163.224708865	2.5	C	0.516749675511	164.224687736	1
165.724627366	2.5	B	0.7500984032100001	166.724603218	1
168.22455129899998	2.5	A	0.383386157142	169.224523831	1
170.724468291	2.5	C	0.35006187931999994	171.72444535	1
173.224387093	2.5	B	0.6334869751569999	174.224362643	1
175.724288388	2.5	A	0.350107760572	176.72428536900003	1
178.22422560299995	2.5	BL	0.666745147755	179.22422017	1
180.72414953700002	2.5	C	0.666741223702	181.72411633299998	1
183.224072565	2.5	C	0.599983700082	184.224046002	1
185.72399046200002	2.5	BL	0.600118929035	186.723977482	1
188.22391499900002	2.5	BL	0.600136436356	189.223906547	1
190.723832292	2.5	B	0.516768993934	191.72380422	1
193.223744454	2.5	A	0.41676627728	194.223727852	1
195.723681669	2.5	BL	0.50007938664	196.723665067	1
198.22359111400002	2.5	B	0.66671405717	199.22356787099997	0
200.72351172700002	2.5	C	0.566800386368	201.72349331400002	1
203.223433548	2.5	BL	0.533471278941	204.22342720900002	1
205.723348124	2.5	A	0.516816082587	206.72332790000002	1
208.223275076	2.5	B	0.500083914394	209.22325062599998	1
210.72317305099997	2.5	BL	0.500094177307	211.723192067	1
213.22311479400003	2.5	C	0.45013854930799996	214.22309306	1
215.72304144400002	2.5	A	0.433403060762	216.72301246599997	1
218.222973226	2.5	C	0.450119230885	219.222930363	1
220.723034803	2.5	A	0.416826043647	221.723020918	1
223.222958133	2.5	BL	0.46681004558	224.222774005	1
225.72271635099997	2.5	B	0.683410908872	226.72269099599998	0
228.22265809400002	2.5	C	0.483420266231	229.222612515	1
230.72255938900003	2.5	B	0.4334362643	231.722554861	1
233.222470645	2.5	BL	0.533491201062	234.22247336200002	1
235.722399107	2.5	A	0.616796462313	236.722366507	1
238.222312777	2.5	BL	0.5334739955919999	239.22232787	1
240.722234598	2.5	B	0.583410305171	241.722210148	1
243.22216306	2.5	A	0.533469769687	244.222137704	1
245.72208276700002	2.5	C	0.350086027347	246.722035075	1
248.22200489	2.5	C	0.416756919918	249.221979535	1
250.72192067400002	2.5	B	0.666756618069	251.72190045	1
253.22184430599998	2.5	A	0.616712849769	254.221821063	1
255.72176673	2.5	BL	0.533467958587	256.721758278	1
258.221686438	2.5	A	0.550095686558	259.221659573	1
260.721604033	2.5	C	0.516771408737	261.72158079	1
263.221527665	2.5	B	0.466736394095	264.221483293	1
265.721447372	2.5	C	0.466772917987	266.72142352599997	1
268.221368589	2.5	B	0.48344531981100003	269.221336291	1
270.721288901	2.5	A	0.500051012708	271.721265658	1
273.221209212	2.5	C	0.43338555344400004	274.221184461	1
275.721151559	2.5	BL	0.5667532977149999	276.72113707	1
278.221053156	2.5	A	0.5500911588040001	279.22103595	1
280.720965016	2.5	B	0.516818497388	281.720949319	1
283.220873857	2.5	A	0.4501279845440001	284.220847596	1
285.72078692400004	2.5	BL	0.466826949198	286.720848199	1
288.220771831	2.5	BL	0.4334205680830001	289.220767304	1
290.720692143	2.5	B	0.38339008119900003	291.72066558	1
293.220612454	2.5	BL	0.46680883817900004	294.220604304	1
295.720533671	2.5	BL	0.46680521597400004	296.720509523	1
298.220454587	2.5	C	0.433403060762	299.22042742	0
300.720377615	2.5	BL	0.466784992001	301.720367352	1
303.220297624	2.5	BL	0.40012375864	304.220273476	1
305.720193788	2.5	B	0.683412116274	306.720158773	1
308.22013764400003	2.5	BL	0.533464034532	309.220131003	1
310.720041353	2.5	C	0.4667774457410001	311.72000996099996	1
313.219956835	2.5	A	0.400109269824	314.219930574	1
315.71990371	2.5	A	0.400013885115	316.71987443	1
318.21980470299997	2.5	C	0.583440188355	319.219792931	1
320.719741918	2.5	B	0.650086027348	321.719713544	1
323.219619367	2.5	A	0.583496936219	324.219634761	1
325.719580428	2.5	B	0.650111986477	326.719554469	1
328.219502249	2.5	BL	0.533513839837	329.219497117	1
330.719422258	2.5	C	0.516769295784	331.71939780900004	1
333.219343476	2.5	C	0.4834003441100001	334.219296085	1
335.719250204	2.5	B	0.400112892028	336.719236922	1
338.21918439999996	2.5	BL	0.500155754777	339.219178665	1
340.71910501400004	2.5	A	0.6000359201919999	341.719034984	1
343.219010836	2.5	A	0.400143982613	344.218998159	1
345.718930846	2.5	BL	0.46681940294	346.718924205	1
348.218836971	2.5	C	0.4167777475940001	349.218843611	1
350.71877328	2.5	B	0.500055238612	351.718744906	1
353.218710495	2.5	C	0.43337589423	354.2186833290001	0
355.71861511099996	2.5	A	0.5834263032379999	356.71859217	1
358.218534215	2.5	B	0.650083612545	359.218529385	1
360.718457545	2.5	C	0.45005493676200004	361.718453621	1
363.21837483800005	2.5	B	0.566725829334	364.218349784	1
365.718298771	2.5	BL	0.566819704791	366.718287905	1
368.21821304599996	2.5	BL	0.6335216879469999	369.218221196	1
370.718158109	2.5	BL	0.566814573334	371.718150261	1
373.218073289	2.5	A	0.500041655347	374.218048839	1
375.71798364	2.5	A	0.433426001387	376.71797277300004	1
378.21791632699995	2.5	C	0.450135832654	379.217891274	1
380.717837544	2.5	B	0.533414832926	381.71781098099996	1
383.21775996900004	2.5	BL	0.466980591022	384.21772042599997	1
385.71766277300003	2.5	A	0.516780464246	386.71765251	1
388.217599082	2.5	B	0.683424793986	389.217572821	1
390.71752090300004	2.5	C	0.583376497932	391.71749585	1
393.217419481	2.5	C	0.400120740136	394.217415256	1
395.717318663	2.5	B	0.416816988138	396.717320173	1
398.21728546	2.5	A	0.45007848109	399.217245314	0
