onset	duration	trial_type	response_time	feedback_onset	correct/incorrect
0.710770925776	2.5	A	0.383437773551	1.7107537203	1.0
3.22735005584	2.5	C	0.500092668055	4.22732379486	1.0
5.727288176519999	2.5	B	0.566746958859	6.727251954480001	1.0
8.22719520661	2.5	BL	0.400136738208	9.227034320389999	1.0
10.7269688189	2.5	C	0.416740620003	11.7269356153	1.0
13.226868906400002	2.5	BL	0.533475806693	14.2268622657	1.0
15.7267928401	2.5	B	0.433538893416	16.7267698995	1.0
18.226709831300003	2.5	A	0.46675631621799996	19.2266826647	1.0
20.7266401038	2.5	A	0.416760843975	21.7266129373	1.0
23.226545624699998	2.5	B	0.416771106884	24.2265311359	1.0
25.726460804699997	2.5	C	0.5167608439729999	26.7264617103	1.0
28.226414017899998	2.5	A	0.46669956835500004	29.2263696459	1.0
30.7263119925	2.5	C	0.466747864411	31.7262905611	1.0
33.2263922847	2.5	B	0.350088140298	34.2263681367	1.0
35.726338253499996	2.5	BL	0.5667886142040001	36.7261369193	1.0
38.2260593438	2.5	C	0.483475504847	39.226050891999996	1.0
40.7259968608	2.5	BL	0.466798273414	41.7259853904	1.0
43.225913851899996	2.5	BL	0.433468562289	44.2259147575	1.0
45.7258199765	2.5	A	0.783439886505	46.7258033747	1.0
48.2257451176	2.5	BL	0.5668067252260001	49.2257396843	1.0
50.7256648254	2.5	B	0.533386760842	51.725637357	1.0
53.2255784962	2.5	C	0.4000866310490001	54.2255715536	1.0
55.725506957600004	2.5	BL	0.566799178967	56.7255075614	1.0
58.225444172799996	2.5	B	0.466705605362	59.225396782299995	1.0
60.7253355067	2.5	A	0.583418756978	61.7253092457	1.0
63.225253705200004	2.5	C	0.500119230885	64.2252368016	1.0
65.7251848833	2.5	A	0.41673820520000004	66.72515711310001	1.0
68.225090706	2.5	B	0.416735186696	69.2250704821	1.0
70.7250119231	2.5	BL	0.50015032147	71.7250173564	1.0
73.2249385735	2.5	C	0.533407286668	74.2249056718	1.0
75.7248625072	2.5	B	0.500133115998	76.72483534060001	1.0
78.2247782909	2.5	BL	0.46674726070699996	79.2247631984	1.0
80.7246986024	2.5	A	0.46674726070699996	81.7246795859	1.0
83.2246174047	2.5	B	0.450041051648	84.2245832956	1.0
85.7245196052	2.5	A	0.45015364182499995	86.7245111534	1.0
88.2244522926	2.5	BL	0.833459808626	89.22444052040001	1.0
90.7243858855	2.5	C	0.450095988406	91.72436385040001	1.0
93.2242938211	2.5	BL	0.633473693742	94.2242901989	1.0
95.72421624559999	2.5	C	0.516744845907	96.7241809291	1.0
98.22412719969999	2.5	A	0.45007999033999996	99.2240994295	1.0
100.72405354799999	2.5	BL	0.633407588517	101.72403905899999	1.0
103.223972351	2.5	B	0.38347459929399996	104.223947901	1.0
105.723891455	2.5	BL	0.533412418121	106.723876664	1.0
108.223811766	2.5	C	0.466716773823	109.22378580700001	1.0
110.723732681	2.5	BL	0.5334350568990001	111.723726041	1.0
113.22365480399999	2.5	A	0.583404268164	114.22362643	1.0
115.723575719	2.5	BL	0.566804914124	116.72356455100001	1.0
118.223483655	2.5	B	0.7000570497149999	119.223471279	1.0
120.72340970100001	2.5	C	0.48339068489799997	121.723388572	1.0
123.22334088	2.5	BL	0.533437471702	124.223323674	1.0
125.723241269	2.5	B	0.666751184763	126.723215612	1.0
128.22318120100002	2.5	A	0.48336955537500004	129.223137734	1.0
130.72308853299998	2.5	B	0.533351444356	131.723064083	1.0
133.222999789	2.5	C	0.566787104952	134.222963567	1.0
135.722966585	2.5	BL	0.500132512301	136.72295722799998	1.0
138.222873615	2.5	A	0.633385251593	139.222837393	1.0
140.722781853	2.5	B	0.5501566603270001	141.722755894	1.0
143.222702164	2.5	A	0.550091460656	144.222696429	1.0
145.72264330299998	2.5	C	0.533374686831	146.722616439	1.0
148.222563615	2.5	BL	0.8336279392679999	149.222539165	1.0
150.72245676	2.5	C	0.466751184762	151.722439554	1.0
153.22238642899998	2.5	B	0.483449847568	154.22237465700002	1.0
155.722329077	2.5	BL	0.46681095112899995	156.72229195	1.0
158.222223128	2.5	A	0.500092064354	159.22217573700001	1.0
160.722146458	2.5	B	0.416762353227	161.722111745	1.0
163.222059223	2.5	A	0.416720697878	164.222025718	1.0
165.722001871	2.5	C	0.416737601496	166.721974403	1.0
168.221920372	2.5	BL	0.466758127321	169.221912826	0.0
170.721819856	2.5	BL	0.633439282803	171.721833741	0.0
173.221762202	2.5	BL	0.633473391892	174.221732319	1.0
175.72163633099998	2.5	C	0.5667665791300001	176.721652932	1.0
178.22159980700005	2.5	B	0.466708623862	179.221550605	1.0
180.721518005	2.5	A	0.600122551237	181.721492952	1.0
183.221417489	2.5	A	0.36673428114600004	184.221413565	1.0
185.72135832700002	2.5	C	0.483385553445	186.721332367	1.0
188.221258414	2.5	BL	0.5334745992909999	189.221249057	1.0
190.721201063	2.5	BL	0.5334202662340001	191.721189592	1.0
193.22112046799998	2.5	BL	0.566794651211	194.22111473299998	1.0
195.721027499	2.5	BL	0.633427510642	196.721030215	1.0
198.22095988400002	2.5	B	0.633386157144	199.220891364	1.0
200.72086782	2.5	A	0.933473090041	201.72083008799999	1.0
203.220798998	2.5	B	0.533411210723	204.22077032200002	1.0
205.720699085	2.5	BL	0.533419360683	206.72069214299998	0.0
208.220625736	2.5	C	0.500065803375	209.22061275599998	1.0
210.720557518	2.5	B	0.466737903349	211.72050107200002	1.0
213.220454888	2.5	C	0.550257780193	214.220452474	1.0
215.720399348	2.5	A	0.516744242203	216.720372483	1.0
218.220316943	2.5	BL	0.633471278939	219.220309397	1.0
220.720239065	2.5	A	0.716759334722	221.720191675	1.0
223.22015756599998	2.5	C	n/a	224.220109874	n/a
225.720023242	2.5	B	0.850115910529	226.72001116799998	1.0
228.21999969799998	2.5	A	0.516797971562	229.21997192799998	1.0
230.719920915	2.5	B	0.5333728757289999	231.71989254099998	1.0
233.219817984	2.5	C	0.466777445745	234.21979383599998	1.0
235.71975882200002	2.5	B	0.533382534941	236.719719279	1.0
238.2196574	2.5	A	0.816816384438	239.21965408	1.0
240.71958767200002	2.5	BL	0.600124060489	241.71958073	1.0
243.21952096400003	2.5	C	0.8834018533600001	244.219494099	1.0
245.71943855799998	2.5	B	0.466738205199	246.719386942	1.0
248.21933864599998	2.5	A	0.766828458447	249.219333213	1.0
250.71926680599998	2.5	BL	0.566797669715	251.71924899599998	1.0
253.219203115	2.5	C	0.500079084788	254.21917443900003	1.0
255.719111051	2.5	A	0.466738808896	256.71909927900003	1.0
258.219020194	2.5	B	0.433512028736	259.219002083	1.0
260.718947448	2.5	C	0.9334613178799999	261.718925111	1.0
263.218883757	2.5	BL	0.466754203266	264.218868967	0.0
265.71880044700004	2.5	A	0.633477919648	266.718763017	0.0
268.218707779	2.5	C	0.616772917987	269.21867759400004	1.0
270.718600622	2.5	B	0.5834166440290001	271.71860847	1.0
273.21852697	2.5	A	n/a	274.21853481799997	n/a
275.718447584	2.5	BL	0.500146095568	276.718449697	0.0
278.218378762	2.5	C	0.366661535212	279.21835401	1.0
280.718272209	2.5	B	0.566769899484	281.718276133	1.0
283.218194331	2.5	A	0.616803706722	284.218215763	1.0
285.718141507	2.5	B	0.55011651423	286.71813547	1.0
288.218081137	2.5	C	0.816735186694	289.218060008	1.0
290.717968245	2.5	A	0.5501473029689999	291.717954964	1.0
293.217900933	2.5	C	0.350107156872	294.217897914	1.0
295.717843581	2.5	BL	0.600143077063	296.71783694	1.0
298.217744272	2.5	BL	0.5334604123269999	299.21775483700003	1.0
300.717667602	2.5	B	0.566742129253	301.71763802099997	1.0
303.217593347	2.5	BL	0.500122853089	304.217569199	1.0
305.717502792	2.5	A	0.483383440489	306.717472607	1.0
308.2174225	2.5	C	0.350074255184	309.21739654099997	1.0
310.71733285	2.5	B	0.483409399621	311.717340698	1.0
313.217284554	2.5	C	0.383473090042	314.21724863400004	1.0
315.717204262	2.5	B	0.383396420053	316.717157777	1.0
318.217076278	2.5	A	0.683450451266	319.217077485	1.0
320.7170473000001	2.5	BL	0.466808838177	321.717037943	1.0
323.216947086	2.5	B	0.7000389386920001	324.216927465	0.0
325.716864077	2.5	A	0.38341785143	326.716847777	1.0
328.216794953	2.5	C	0.36673126263800004	329.216767485	1.0
330.716713152	2.5	B	0.48339068489799997	331.716687796	1.0
333.216645839	2.5	A	0.483376196084	334.216597241	1.0
335.716564943	2.5	C	0.383396420053	336.71654954900004	1.0
338.216488877	2.5	A	0.38346916598999997	339.216460503	1.0
340.716405566	2.5	C	0.4667294515380001	341.71635787400004	1.0
343.216328292	2.5	B	0.5000766699889999	344.21630173	1.0
345.716247698	2.5	A	0.51674726071	346.71621328699996	1.0
348.216149295	2.5	C	0.433503576925	349.21614627699995	1.0
350.71608198300004	2.5	BL	0.600137040059	351.71604274199996	1.0
353.215986296	2.5	B	0.41674273295599995	354.21596577	0.0
355.715903891	2.5	A	0.45014851036799997	356.715905702	1.0
358.215854689	2.5	B	0.433427208791	359.215827221	1.0
360.71574904199997	2.5	C	0.6834540734710001	361.71573606199996	1.0
363.215689275	2.5	B	0.483414832925	364.215664825	1.0
365.715588155	2.5	C	0.433387666395	366.715563404	1.0
368.215531709	2.5	A	0.550066407075	369.21549156300006	1.0
370.715453832	2.5	A	0.766708623865	371.71540342300005	0.0
373.232041112	2.5	B	0.950065199675	374.232010625	0.0
375.731946633	2.5	C	0.516707718314	376.731893205	1.0
378.232011229	2.5	B	n/a	379.23201334199996	n/a
380.73196082	2.5	C	0.666772917986	381.731922787	1.0
383.231879924	2.5	BL	0.566616861361	384.23169066400004	1.0
385.731621842	2.5	BL	0.43345377162	386.73162486	0.0
388.231560264	2.5	A	0.43341392737400003	389.231534305	1.0
390.73146608699994	2.5	BL	0.566653083402	391.73145793699996	0.0
393.231399076	2.5	B	n/a	394.231349875	n/a
395.73127079	2.5	C	n/a	396.73126626199996	n/a
398.23124332199995	2.5	A	0.550121645691	399.231214646	1.0
