onset	duration	trial_type	response_time	feedback_onset	correct/incorrect
0.711242069145	2.5	B	0.6500654572160001	1.7112541433300001	0.0
3.22788136261	2.5	C	0.566757454533	4.2278904182499994	1.0
5.727870043049999	2.5	A	0.583393880377	6.727841064990001	1.0
8.22780559705	2.5	C	0.583458779161	9.22782038794	1.0
10.7278024276	2.5	A	0.483424096044	11.7277743551	1.0
13.227759111400001	2.5	BL	0.8666242460019999	14.227587959700001	0.0
15.7275401157	2.5	B	0.633393714357	16.7274957431	1.0
18.2274967996	2.5	C	0.60009158275	19.2274886495	0.0
20.7274329573	2.5	A	0.666778554179	21.727442616599998	1.0
23.2273996023	2.5	B	0.43349368867	24.2274011116	1.0
25.7273481361	2.5	A	0.53344777655	26.7273583992	1.0
28.227298481	2.5	B	0.66683107692	29.227314781100002	1.0
30.7272615038	2.5	BL	0.833502623573	31.7272883688	1.0
33.2271988689	2.5	C	0.7834689818520001	34.227238411900004	1.0
35.7271960013	2.5	BL	0.8001518933380001	36.727201132800005	1.0
38.2271366868	2.5	BL	0.7667779202860001	39.227115557	1.0
40.7270921632	2.5	C	0.616744308754	41.7270812964	1.0
43.2270506582	2.5	A	0.383454311708	44.227040697	1.0
45.7269916456	2.5	B	0.650146052449	46.7269868159	1.0
48.2269655351	2.5	A	0.566723646793	49.2269474238	1.0
50.72689625939999	2.5	B	0.600135653549	51.7269056169	1.0
53.2268517359	2.5	C	0.5501222361020001	54.2268647156	0.0
55.726811438199995	2.5	B	0.666777950475	56.726793326999996	0.0
58.22677838510001	2.5	A	0.583492285044	59.22677838510001	1.0
60.7267459358	2.5	C	0.616776305364	61.7267353708	1.0
63.2266751508	2.5	C	0.6335026839410001	64.2266938658	1.0
65.7266611146	2.5	BL	0.7668162558480001	66.7266550775	1.0
68.2266159873	2.5	A	0.600090677184	69.2266156854	1.0
70.7265738785	2.5	B	0.416713278079	71.7265530505	1.0
73.22653267529999	2.5	C	0.60009158275	74.2265193937	1.0
75.7264600793	2.5	B	0.600169159436	76.7264763794	0.0
78.22642944100001	2.5	BL	0.80009484278	79.2264400059	1.0
80.7263788803	2.5	A	0.7001784867499999	81.7263900489	1.0
83.2263391864	2.5	B	0.7667990501209999	84.2263246974	1.0
85.7263185093	2.5	A	0.650109528015	86.72629315350002	1.0
88.2262724765	2.5	BL	0.800091220524	89.2262694579	1.0
90.7262436494	2.5	C	0.683370305516	91.726231877	1.0
93.2262045592	2.5	A	0.533448078408	94.22617558110001	1.0
95.7261609411	2.5	C	0.6333665474229999	96.7261286427	1.0
98.2261194361	2.5	B	0.6834228282529999	99.2261076638	0.0
100.726054386	2.5	A	0.7167771807439999	101.72601756	1.0
103.226010768	2.5	C	0.533488526951	104.226022541	1.0
105.72598224299999	2.5	B	0.500118478012	106.725957491	1.0
108.22594587	2.5	A	0.583479607143	109.225913873	1.0
110.725901346	2.5	C	0.400065079895	111.725891687	1.0
113.22582452399999	2.5	B	0.700121134334	114.225851389	0.0
115.725790263	2.5	A	0.6167856628639999	116.725807469	1.0
118.22577381200001	2.5	C	0.6667444445880001	119.22576385100001	1.0
120.7257311	2.5	B	0.783391103312	121.72572023299999	1.0
123.22568989700001	2.5	A	0.549995457084	124.22567872799999	1.0
125.725644468	2.5	C	0.450120153306	126.725608849	1.0
128.22560085	2.5	B	0.666748972413	129.225564023	1.0
130.72555994799998	2.5	C	0.566733909855	131.725566891	1.0
133.225498521	2.5	A	0.383468498887	134.225486145	1.0
135.725474825	2.5	B	0.516721699831	136.725433471	1.0
138.225404644	2.5	BL	0.833451911963	139.22543664100002	1.0
140.725387589	2.5	BL	0.7001609791660001	141.725393626	1.0
143.225343066	2.5	BL	0.666828963935	144.225349706	1.0
145.725301862	2.5	C	0.6833908316439999	146.72528224200002	1.0
148.225257942	2.5	A	0.383505325171	149.225222324	1.0
150.72518595	2.5	B	0.41685001830799995	151.725205571	1.0
153.225173121	2.5	A	0.566726363486	154.225163462	1.0
155.72513222	2.5	C	0.400061457636	156.72512044799998	1.0
158.225087998	2.5	BL	0.800069486977	159.225092526	1.0
160.725031702	2.5	BL	0.700134114093	161.72504830399998	1.0
163.225000158	2.5	B	0.8667461953479999	164.224990197	0.0
165.72495835200002	2.5	A	0.566758058241	166.724921827	1.0
168.224906885	2.5	BL	0.700069819017	169.224923487	1.0
170.724882284	2.5	BL	0.766810218753	171.72486326700002	1.0
173.224829007	2.5	C	0.766781542541	174.22481934700005	0.0
175.72478780400002	2.5	BL	0.800150384064	176.72479172799999	1.0
178.224737847	2.5	B	0.7500572769499999	179.22472698	0.0
180.72469422900002	2.5	C	0.866742271231	181.72468366400003	0.0
183.22465242200002	2.5	A	0.60009037533	184.224664194	1.0
185.724617256	2.5	B	0.933484783953	186.724621482	1.0
188.224568204	2.5	BL	0.70010091006	189.224572128	0.0
190.724524284	2.5	A	0.566767717595	191.724491382	1.0
193.22449364599998	2.5	BL	0.733478505372	194.224497268	1.0
195.72444006700002	2.5	B	0.85008139515	196.724426785	1.0
198.224420295	2.5	C	0.700059857809	199.224392827	1.0
200.72437697900003	2.5	B	0.73335293377	201.724341662	1.0
203.224492137	2.5	C	0.76676614795	204.22448972200002	1.0
205.724420748	2.5	A	0.41682828475999995	206.72443946299998	1.0
208.224381658	2.5	C	0.500082255436	209.22437773400003	1.0
210.724367924	2.5	BL	0.699934588065	211.72418801799998	1.0
213.22412417599998	2.5	BL	0.900113829448	214.224150739	1.0
215.724094141	2.5	A	0.616753968108	216.724083576	1.0
218.22405384400003	2.5	B	0.616799246327	219.22404086400002	1.0
220.724032261	2.5	A	0.433399811824	221.72398788799998	1.0
223.223977474	2.5	C	0.5167084182180001	224.223978078	1.0
225.72393385599997	2.5	B	0.516733472166	226.723913632	1.0
228.22390352	2.5	A	0.46669469891599996	229.22389597400002	0.0
230.72386080799998	2.5	B	0.8000601294769999	231.72384933700002	0.0
233.22380421	2.5	C	0.816789526605	234.223805719	1.0
235.72374549900002	2.5	C	0.516762752082	236.72374248	0.0
238.22373267	2.5	B	0.9667491837100001	239.22372150200002	0.0
240.72367909099998	2.5	BL	0.800145252535	241.723682109	1.0
243.223639095	2.5	A	0.733416021427	244.223633662	1.0
245.72357676200002	2.5	B	0.7501553797630001	246.723578573	1.0
248.223562122	2.5	A	0.566725457924	249.22353706799998	1.0
250.723497676	2.5	C	0.533429967116	251.723494658	1.0
253.223453454	2.5	A	0.61683245036	254.22346311400003	1.0
255.72341134599998	2.5	BL	0.700142566027	256.723438211	1.0
258.223377085	2.5	BL	0.833481795587	259.223380707	1.0
260.723334373	2.5	BL	0.833481191883	261.72331294099996	0.0
263.223308262	2.5	C	0.783431250002	264.223280793	1.0
265.72323959	2.5	B	0.833433800675	266.72322691200003	1.0
268.223219215	2.5	A	0.350082149787	269.22317725700003	1.0
270.723162919	2.5	BL	0.633416957175	271.72316624	0.0
273.223121112	2.5	C	0.7000532170020001	274.223108133	0.0
275.723036744	2.5	B	0.7834831690270001	276.723057572	0.0
278.223033574	2.5	A	n/a	279.223015765	n/a
280.72297486400004	2.5	C	0.7000960803849999	281.722962789	1.0
283.222948451	2.5	BL	0.633454387174	284.222951168	1.0
285.72290664400003	2.5	B	0.65014243019	286.72289517400003	0.0
288.222863932	2.5	BL	0.8000915223780001	289.22286846	0.0
290.722821823	2.5	BL	0.833487228978	291.722817295	1.0
293.22279752400004	2.5	C	0.750047315742	294.22276764	1.0
295.722753302	2.5	BL	0.733393382314	296.722740322	1.0
298.222683725	2.5	BL	0.7001220398960001	299.222711193	1.0
300.722651275	2.5	A	0.6833983780159999	301.722652483	1.0
303.222621844	2.5	BL	0.9334663708100001	304.222611883	0.0
305.72254321099996	2.5	B	0.683413168899	306.722528119	1.0
308.22252193099996	2.5	A	0.550080580138	309.22252344	1.0
310.722457786	2.5	B	0.650114659551	311.722458994	1.0
313.222437713	2.5	C	0.666799080311	314.222416583	1.0
315.722408282	2.5	A	0.533365068335	316.7223787	1.0
318.222343836	2.5	BL	0.8001032947139999	319.222356514	1.0
320.722283918	2.5	C	0.733414814007	321.722269429	1.0
323.22226263700003	2.5	BL	0.666820210146	324.222271693	1.0
325.72222445299997	2.5	BL	0.73344016981	326.722243168	0.0
328.222182042	2.5	BL	0.666815984179	329.222175099	1.0
330.722139933	2.5	BL	0.733396400865	331.722143556	1.0
333.222112917	2.5	B	0.766806596494	334.222084845	0.0
335.722052697	2.5	A	0.6667613484570001	336.722036699	1.0
338.222011796	2.5	C	0.600089771619	339.221979497	1.0
340.722141443	2.5	BL	0.666677130968	341.72196515900004	0.0
343.221922145	2.5	BL	n/a	344.22193240800004	n/a
345.72188064	2.5	B	0.600136559115	346.721873395	0.0
348.22185302	2.5	A	0.60008101783	349.221829174	1.0
350.721813024	2.5	C	0.616800755601	351.72177770699994	1.0
353.221755521	2.5	B	0.5500811838499999	354.22174224	0.0
355.721711601	2.5	C	0.616754269962	356.721686245	1.0
358.221666474	2.5	A	0.400078663366	359.221651079	1.0
360.721630704	2.5	BL	0.666798174745	361.72162315800006	0.0
363.221580445	2.5	B	0.800063449879	364.22157591800004	0.0
365.72155644800006	2.5	C	0.5001371930080001	366.72154799599997	1.0
368.22150256699996	2.5	A	0.583478399723	369.22150377400004	1.0
370.72145411900004	2.5	B	0.783430646294	371.721432084	1.0
373.221428311	2.5	A	0.550087522803	374.221419557	1.0
375.721331264	2.5	BL	0.7334594885179999	376.721375033	1.0
378.22134982800003	2.5	C	0.666740822333	379.221319945	1.0
380.721288703	2.5	B	0.766739584727	381.721275723	1.0
383.221236331	2.5	C	0.566714289296	384.22125051800003	1.0
385.721176413	2.5	BL	0.8001757398710001	386.72120840900004	0.0
388.22117716699995	2.5	A	0.6667803653109999	389.22114879300005	1.0
390.72112479599997	2.5	B	0.500113950191	391.72108102699997	1.0
393.22107665	2.5	C	0.6834062262389999	394.221046162	1.0
395.72100797800005	2.5	B	0.7333936841709999	396.721033334	1.0
398.221007525	2.5	A	0.866771249297	399.22097401900004	0.0
