onset	duration	trial_type	response_time	feedback_onset	correct/incorrect
0.713605080775	2.5	B	0.7667413247689999	1.71354531405	1
3.2301837072299997	2.5	BL	0.5668261452269999	4.23003398856	1
5.729994144069999	2.5	C	0.6667198932630001	6.7299428292	1
8.22985106614	2.5	A	0.5501394557	9.22984925503	1
10.7298199754	2.5	B	0.8167108376980001	11.729812730899999	1
13.2297523605	2.5	C	0.53347057545	14.229748134600001	1
15.729696517799999	2.5	A	0.433410808721	16.7296814252	1
18.229621658499997	2.5	BL	0.533484158797	19.2295890585	0
20.7295673251	2.5	C	0.51673619328	21.729544988	1
23.229506350999998	2.5	A	0.683384245731	24.229469525	1
25.7294432639	2.5	B	0.5833821327650001	26.7294230398	1
28.2293623675	2.5	C	0.483448540243	29.2293059211	1
30.729308336	2.5	A	0.416748267369	31.729269397	1
33.2291963488	2.5	B	0.43348898843	34.2291897081	1
35.7291625414	2.5	C	0.400101120475	36.7291562025	1
38.2290967376	2.5	A	0.616814976696	39.2290695709	1
40.7290372727	2.5	B	0.48339903648599997	41.7290239912	0
43.228970563400004	2.5	C	0.400052522276	44.2289391708	1
45.7289065707	2.5	BL	0.500102629736	46.7288938929	1
48.228829598400004	2.5	BL	0.633487479172	49.2287979039	1
50.7287643983	2.5	A	0.6167624544210001	51.7287553428	1
53.2286973872	2.5	B	0.416710837701	54.2286783705	1
55.728644563	2.5	C	0.433402658713	56.728611963	1
58.22856789260001	2.5	A	0.48348627176200004	59.2285458574	1
60.72850752220001	2.5	B	0.583387566105	61.728493637	1
63.2284347758	2.5	C	0.600076670449	64.2284269276	1
65.7283614257	2.5	B	0.833483856946	66.7283493516	1
68.2283149405	2.5	BL	0.666795960009	69.22830437569999	0
70.7282388737	2.5	BL	0.466817995217	71.72824611819999	1
73.2281957089	2.5	A	0.700033505589	74.2281404699	1
75.7281205477	2.5	BL	0.466816787812	76.7281078699	1
78.2280411606	2.5	BL	0.46675732293399996	79.22802365310001	1
80.7279759605	2.5	A	0.483411714278	81.7279581512	1
83.2279089493	2.5	B	0.516717780301	84.2278905363	1
85.7278452585	2.5	C	0.283436768008	86.72782533629999	1
88.2277785492	2.5	B	0.48346031247599996	89.227770701	1
90.7277254232	2.5	A	0.366791432229	91.7277009732	1
93.2276185675	2.5	C	0.483482347685	94.2276393953	1
95.7275965323	2.5	BL	0.50009900751	96.7275901934	1
98.2275283137	2.5	B	0.483459708772	99.22749722299999	1
100.72746100100001	2.5	C	0.416728043274	101.727439871	1
103.22738584	2.5	A	0.516703593246	104.227378595	1
105.72733422299999	2.5	C	0.566740419214	106.727272645	1
108.227254836	2.5	B	0.866793545192	109.227233706	0
110.72718842799999	2.5	A	0.500134626065	111.72717756200001	1
113.22713439700001	2.5	C	0.416709328438	114.22711236100001	1
115.727070404	2.5	B	0.600122551979	116.72703780399999	1
118.226982565	2.5	A	0.550092970469	119.22697350899999	1
120.726899858	2.5	C	0.8167537007100001	121.726920685	1
123.226867559	2.5	A	0.483482045835	124.226831639	1
125.72681050899999	2.5	B	0.450101422324	126.726790889	1
128.226704861	2.5	A	0.250123155685	129.226715124	0
130.726676789	2.5	B	0.800091461206	131.726656867	1
133.226590459	2.5	C	0.550110779746	134.226570235	1
135.726537031	2.5	C	0.516748871072	136.726527674	1
138.226472435	2.5	B	0.566786300744	139.226440137	1
140.726415385	2.5	BL	0.466821617447	141.726402707	1
143.226348675	2.5	A	0.500074557487	144.226292229	1
145.726275929	2.5	BL	0.500112892711	146.72627442	0
148.226193523	2.5	A	0.5335016662250001	149.226204994	1
150.726160018	2.5	B	0.516760039605	151.726137077	1
153.226079423	2.5	C	0.433449143948	154.226066444	0
155.72601362	2.5	BL	0.53342469392	156.726022675	1
158.225958381	2.5	A	0.516705404363	159.225928799	1
160.725882918	2.5	B	0.516755813675	161.725862995	1
163.225790249	2.5	BL	0.73351796624	164.22578874	1
165.725755536	2.5	BL	0.500124664944	166.725760667	1
168.225696675	2.5	BL	0.700073048225	169.225684299	1
170.725633588	2.5	C	0.500096290838	171.725604006	1
173.225530052	2.5	A	0.483525814398	174.225582575	1
175.725504395	2.5	C	0.43341956243199997	176.725485378	1
178.22543346	2.5	B	0.5667642655349999	179.22542651700005	1
180.725372486	2.5	BL	0.766753097003	181.72535829900002	0
183.22529943700002	2.5	BL	0.566822523	184.22529943700002	1
185.725250537	2.5	A	0.566739211805	186.725217334	1
188.225198015	2.5	BL	0.46675219144900004	189.22518684599999	1
190.72512406099997	2.5	C	0.5167479655139999	191.725100819	0
193.225080595	2.5	BL	0.433477819905	194.225056446	0
195.725001811	2.5	B	0.766757322934	196.724993963	1
198.22493510200002	2.5	A	0.383438579123	199.224908539	1
200.72486477	2.5	BL	0.500111987156	201.72486084599998	0
203.224806211	2.5	C	0.616817391514	204.22475761299998	1
205.724736785	2.5	B	0.900091461208	206.724719579	1
208.22468939400002	2.5	BL	0.633428014295	209.224673698	0
210.724625401	2.5	A	0.550121948272	211.72459249999997	1
213.224516433	2.5	BL	0.766810750767	214.22453484599998	0
215.72449469900002	2.5	BL	0.9001216464239999	216.724467533	1
218.22439207	2.5	B	0.483481442127	219.224398107	1
220.724340453	2.5	C	0.6667814711069999	221.724321134	1
223.224287025	2.5	BL	0.666787810002	224.22429698599998	1
225.724234805	2.5	A	0.43341654391400003	226.724213675	1
228.224125232	2.5	C	0.616789621115	229.224131873	1
230.724104405	2.5	BL	0.900150926082	231.724085388	1
233.22401686700002	2.5	B	0.5834265050330001	234.223963742	1
235.723951667	2.5	A	0.56674585255	236.723942008	1
238.22389431599998	2.5	B	0.45007304822099997	239.223887675	1
240.72382307799998	2.5	C	0.35013281495399995	241.72381100400003	1
243.223760595	2.5	B	0.800041051894	244.22373493799998	1
245.72371380799999	2.5	C	0.5001364371779999	246.723670945	1
248.22364830599997	2.5	BL	0.666775434063	249.223629289	1
250.723562882	2.5	A	0.416740721066	251.723562882	1
253.223496776	2.5	B	0.416731967351	254.223474137	1
255.72345300799998	2.5	C	0.333420769846	256.723408937	1
258.223367885	2.5	A	0.500069425998	259.223344643	1
260.723322306	2.5	C	0.550134022364	261.723280952	0
263.223234467	2.5	A	0.600103837147	264.223237787	1
265.72319492400004	2.5	BL	0.500103535294	266.723178322	0
268.22309621799997	2.5	BL	0.600099309366	269.22310467	1
270.723040376	2.5	B	0.40010081862400004	271.723020454	1
273.222985741	2.5	BL	0.833462425442	274.222973365	0
275.722909976	2.5	C	0.5334086957549999	276.722891864	1
278.222868924	2.5	A	0.450080594528	279.222794064	1
280.72279014	2.5	B	0.566760341455	281.722782896	1
283.222737618	2.5	C	0.7334198642890001	284.222692944	1
285.722651892	2.5	A	0.61672743957	286.722653401	1
288.22272131799997	2.5	B	0.800044372267	289.222751503	1
290.722695962	2.5	C	0.600141870516	291.722693548	1
293.222614764	2.5	A	0.500088442685	294.22261053799997	1
295.72258307	2.5	B	0.500131003839	296.72255650700004	1
298.222490703	2.5	A	0.466714158076	299.22247259200003	1
300.722427314	2.5	B	0.45014609644599995	301.722431842	1
303.222376301	2.5	C	0.350091461205	304.22234521	1
305.72229721599996	2.5	A	0.7167352877259999	306.722279105	1
308.222244392	2.5	B	0.45007153896200003	309.222276992	1
310.722171042	2.5	C	0.450159377942	311.722163797	1
313.222117916	2.5	C	0.43346725507899997	314.22208259900003	1
315.722036717	2.5	B	0.633367342012	316.72200472099996	1
318.221988723	2.5	BL	0.466757624788	319.221824515	1
320.721747845	2.5	A	0.533367643864	321.721718565	1
323.221696832	2.5	A	0.3834512569120001	324.221677211	1
325.721636461	2.5	BL	0.43340990316600003	326.721608087	1
328.221531417	2.5	C	0.550095988987	329.221532926	1
330.721488554	2.5	B	0.566759737751	331.721467424	1
333.221422448	2.5	BL	0.500158774237	334.221433919	0
335.721355739	2.5	A	0.533391188332	336.721296576	1
338.221290841	2.5	B	0.5500863297199999	339.221243752	1
340.72123982799997	2.5	C	0.36667008766000003	341.721196361	1
343.221162252	2.5	A	0.533402055007	344.221130557	1
345.721110937	2.5	BL	0.500099913064	346.72109463699996	1
348.221043926	2.5	B	0.41670389509800004	349.221022494	1
350.72096453800003	2.5	C	0.450111081598	351.720934655	1
353.220891792	2.5	B	0.550079387118	354.22088122699995	1
355.72082297	2.5	A	0.466764265533	356.72081482	1
358.220770749	2.5	BL	0.466746154401	359.220757166	1
360.720682005	2.5	C	0.500150020529	361.72067415699996	1
363.220650008	2.5	C	0.40008542416000004	364.22063069	1
365.720586921	2.5	B	0.400081198233	366.720554019	0
368.22052051400004	2.5	A	0.550076066746	369.22047795300006	1
370.720456219	2.5	C	0.733433447633	371.72043478800003	1
373.220390717	2.5	BL	0.666775132213	374.22039132099997	1
375.720310425	2.5	BL	0.600102931588	376.72029865300004	0
378.22025941199996	2.5	BL	0.5334660476690001	379.220256091	1
380.72017398800006	2.5	BL	0.866747361812	381.720175799	1
383.220106675	2.5	A	0.516801997052	384.22005385	1
385.720022458	2.5	BL	0.466834597089	386.720061397	1
388.21999891300004	2.5	BL	0.6000751611899999	389.21998170800003	0
390.719917715	2.5	B	0.600124363093	391.719887832	0
393.219866098	2.5	C	0.433465745817	394.219833498	1
395.719780674	2.5	A	0.566746154404	396.719770109	1
398.21972302	2.5	B	0.51677211369	399.219701589	1
