onset	duration	trial_type	response_time	feedback_onset	correct/incorrect
0.7157981702259999	2.5	A	0.55007846668	1.7157851905500001	0.0
3.21577266365	2.5	B	0.516729145205	4.21573010238	1.0
5.71570218098	2.5	BL	0.5999222426690001	6.71552076733	0.0
8.21546839584	2.5	BL	0.533434293098	9.21547050881	1.0
10.7154157225	2.5	BL	0.5335502046399999	11.715426589200002	1.0
13.215352786099999	2.5	C	0.85008682801	14.2153343731	0.0
15.731961793900002	2.5	A	0.7334390623729999	16.7319454938	1.0
18.2319009705	2.5	B	0.38345290233	19.2318879908	1.0
20.7318443731	2.5	BL	0.500157718183	21.731867313899997	1.0
23.231785058899998	2.5	BL	0.533453309832	24.2317853608	1.0
25.7317402338	2.5	C	0.900103565757	26.731724537399998	0.0
28.2316827308	2.5	BL	0.533453611686	29.231682428899997	1.0
30.7316255296	2.5	B	0.45016573238200003	31.7316080222	0.0
33.231564102600004	2.5	C	0.500087386437	34.2315354265	0.0
35.7315087125	2.5	BL	0.966748780742	36.7315141459	1.0
38.231448191	2.5	A	0.766773593055	39.231431287199996	1.0
40.7313879713	2.5	B	0.733447816106	41.7313731805	1.0
43.2313295628	2.5	A	0.550102313071	44.2313135646	1.0
45.7312705505	2.5	C	0.46676160949199996	46.731246402299995	1.0
48.2312127457	2.5	A	0.55008842783	49.2311982567	1.0
50.731153129700004	2.5	C	0.650055495669	51.7311374334	1.0
53.231093211899996	2.5	B	0.566783312723	54.231078421099994	1.0
55.731036312600004	2.5	A	0.566754032985	56.73102001260001	1.0
58.23097971520001	2.5	BL	0.600092185905	59.230978507799996	0.0
60.7309179862	2.5	B	0.733455664285	61.730902893599996	1.0
63.2308619925	2.5	C	0.533403202237	64.2308432776	1.0
65.7308038858	2.5	BL	0.566806555402	66.73079754689999	1.0
68.2307448736	2.5	B	0.750052748812	69.2307020104	1.0
70.7306876724	2.5	C	0.466749233517	71.73065084640001	1.0
73.2306259435	2.5	A	0.400080172156	74.230608436	1.0
75.7305672331	2.5	A	0.46675828910899997	76.7305500275	0.0
78.2305085227	2.5	BL	0.6667793584489999	79.2305112393	1.0
80.73044166220001	2.5	C	0.600131426792	81.7304329085	1.0
83.2303856685	2.5	BL	0.566800820197	84.2303914037	1.0
85.7303372211	2.5	B	0.63338566458	86.7303166951	0.0
88.230277907	2.5	C	0.46672387786700004	89.23025828649997	1.0
90.7302155743	2.5	B	0.916709705871	91.730191728	1.0
93.23016078799999	2.5	BL	0.666782075125	94.23015927879999	1.0
95.73009996469999	2.5	BL	0.6334185665550001	96.7300996628	1.0
98.23003853760001	2.5	A	0.550087220421	99.23002646350001	1.0
100.72997982700001	2.5	B	0.533391429974	101.72995779200001	1.0
103.22992383299999	2.5	A	0.65005730679	104.22991025	1.0
105.72985818	2.5	C	0.633393512759	106.729851238	1.0
108.22980701600001	2.5	BL	n/a	109.22981094	n/a
110.729754041	2.5	BL	0.5668134980189999	111.72975132399999	1.0
113.229688992	2.5	B	0.683417494976	114.229673295	1.0
115.72962062200001	2.5	A	0.600111504493	116.72961881100001	1.0
118.229571873	2.5	C	0.533481985865	119.22958274	1.0
120.729510144	2.5	C	0.583400017687	121.729500485	1.0
123.22946048899999	2.5	BL	0.600093695168	124.229459584	1.0
125.72939876	2.5	B	0.516757217531	126.72938457299999	0.0
128.22933039	2.5	A	0.616824802411	129.22932495700002	1.0
130.72925145600001	2.5	A	0.716753233071	131.729281641	1.0
133.229226251	2.5	C	0.466723576017	134.229208744	0.0
135.729168144	2.5	B	0.5167300507639999	136.72915305200002	1.0
138.229112151	2.5	A	0.466722670459	139.22909283200002	1.0
140.72904227200002	2.5	B	0.516758726797	141.729033216	1.0
143.228984165	2.5	C	0.650054590111	144.228971185	1.0
145.728936321	2.5	B	0.500145040358	146.72892032299998	0.0
148.228880328	2.5	C	0.583419939983	149.228863424	1.0
150.728818297	2.5	BL	0.600111202639	151.728822825	1.0
153.22876019	2.5	A	0.5000885938499999	154.228746909	1.0
155.728707819	2.5	B	0.43342104174699997	156.72866073	1.0
158.228656956	2.5	BL	0.833468311928	159.228647599	0.0
160.72858919	2.5	C	0.5833894528329999	161.728572589	1.0
163.228532895	2.5	BL	0.6667796603	164.22853048	0.0
165.72847327899999	2.5	A	0.6001136174639999	166.72845064	1.0
168.228414267	2.5	C	0.58341329922	169.228399174	1.0
170.728357066	2.5	A	0.550112576067	171.728341671	1.0
173.22828960099997	2.5	B	0.5000882919990001	174.228283866	1.0
175.72824206	2.5	C	0.5168073251259999	176.728223948	1.0
178.228185462	2.5	A	0.350081545585	179.22816825599998	1.0
180.72811286599998	2.5	B	0.550161778105	181.728114678	0.0
183.22806743799998	2.5	A	0.633409510963	184.22806955099998	1.0
185.72801265099997	2.5	B	0.750085952637	186.72799635099997	1.0
188.227927076	2.5	BL	0.700120228044	189.22795092200002	1.0
190.727896136	2.5	C	0.700085213099	191.727880138	0.0
193.22783742599998	2.5	B	n/a	194.227822333	n/a
195.72778173400002	2.5	BL	0.600116032285	196.72778052599998	1.0
198.227722721	2.5	A	0.533404107799	199.227696158	1.0
200.727665218	2.5	BL	0.500122099533	201.72766703	1.0
203.22761103599998	2.5	BL	0.533452706128	204.227607715	1.0
205.72754659	2.5	C	0.616755678082	206.72753481799998	0.0
208.227508104	2.5	B	0.850037625976	209.227477013	1.0
210.727434301	2.5	C	0.516746652676	211.727409247	1.0
213.227394305	2.5	A	0.483452872144	214.22735536599998	1.0
215.727320201	2.5	B	0.48337952186899996	216.727318389	0.0
218.227266018	2.5	BL	0.733481321793	219.227260585	1.0
220.727220589	2.5	C	0.600105467431	221.727190102	1.0
223.22714739	2.5	A	0.4667268964	224.227130184	1.0
225.727093509	2.5	B	0.7834337648530001	226.727073285	1.0
228.22703630799998	2.5	C	0.683451000656	229.227017593	1.0
230.72697518299998	2.5	A	0.5501125760710001	231.726959788	1.0
233.22692250900002	2.5	BL	0.633462335238	234.22690953	1.0
235.72686168599998	2.5	A	0.566750410748	236.726836934	1.0
238.226805088	2.5	C	0.566776671956	239.226790298	1.0
240.72674577400002	2.5	B	0.48339038857699995	241.726722532	1.0
243.226678008	2.5	C	0.783431953732	244.226667443	1.0
245.72663076799998	2.5	B	0.616764431819	246.726629863	1.0
248.22657386900002	2.5	A	0.5667787849270001	249.226558173	1.0
250.72650308400003	2.5	BL	0.566829496227	251.726506707	1.0
253.226458561	2.5	C	0.633424603613	254.226445883	1.0
255.726428225	2.5	A	0.43330392279299995	256.726386871	1.0
258.22633782	2.5	B	0.700063781536	259.226327255	1.0
260.72628575	2.5	C	0.533377242882	261.726273374	1.0
263.226230058	2.5	A	0.316725583336	264.226212551	1.0
265.726171046	2.5	B	0.8000788440000001	266.726170744	1.0
268.226110827	2.5	C	0.616784957823	269.226097847	1.0
270.726047588	2.5	A	0.5333896188530001	271.726043362	1.0
273.226000952	2.5	BL	0.766794119059	274.225987067	1.0
275.725949486	2.5	B	0.800067675438	276.725926545	0.0
278.225884437	2.5	BL	0.5668092720769999	279.225888663	1.0
280.725818482	2.5	A	0.583388849129	281.72580248400004	1.0
283.22578542900004	2.5	C	0.46671150189599997	284.225769431	1.0
285.72571223	2.5	B	0.616756885494	286.725697741	1.0
288.225627862	2.5	C	0.633451166679	289.225640238	1.0
290.725594507	2.5	A	0.450116832195	291.725583942	1.0
293.225540023	2.5	B	0.700055027799	294.22552553400004	1.0
295.72548433099996	2.5	A	0.60013565273	296.725453844	1.0
298.225426526	2.5	BL	0.733485849585	299.225436789	1.0
300.725367212	2.5	C	0.6334086054079999	301.725353326	1.0
303.225306086	2.5	B	0.7500433913660001	304.225295522	1.0
305.725255526	2.5	A	0.5501125760710001	306.725234698	1.0
308.225196816	2.5	BL	0.633512140979	309.225197118	1.0
310.725154405	2.5	BL	0.633424603613	311.725147765	1.0
313.225080602	2.5	C	n/a	314.22508996	n/a
315.725022797	2.5	B	0.5501125760710001	316.72500046	0.0
318.224966804	2.5	A	0.633423999909	319.224951107	1.0
320.724909603	2.5	C	0.566758862631	321.724893604	1.0
323.224851798	2.5	B	0.45009540063299996	324.224836101	1.0
325.72479489799997	2.5	A	0.60011331561	326.724779504	1.0
328.224740112	2.5	BL	0.666780264008	329.22473649	1.0
330.724679892	2.5	C	0.5167602360600001	331.7246648	1.0
333.224639293	2.5	B	0.633383249755	334.224600958	1.0
335.724566698	2.5	C	0.533391731824	336.724550096	1.0
338.224503761	2.5	B	0.350084865968	339.224470557	1.0
340.724450182	2.5	A	0.466753761317	341.724435995	1.0
343.224409583	2.5	BL	0.600079508076	344.22439479199994	0.0
345.72432129099997	2.5	B	0.5833939806289999	346.72433668599996	1.0
348.2242785790001	2.5	A	0.650057004936	349.224264694	1.0
350.72422168	2.5	C	0.5167644620049999	351.724194815	1.0
353.22417172300004	2.5	BL	0.533486211807	354.22415331	1.0
355.724106372	2.5	A	0.566747694069	356.724080412	0.0
358.224064565	2.5	BL	0.7334789069650001	359.224048265	1.0
360.724006458	2.5	B	0.583362286066	361.72399197	0.0
363.22393476800005	2.5	C	0.666775434362	364.22391907199994	1.0
365.72387636	2.5	A	0.6001453120260001	366.72385945599996	1.0
368.223821573	2.5	BL	0.5334819858690001	369.223821875	1.0
370.723756826	2.5	B	0.616762318845	371.72375048699996	0.0
373.22370626599997	2.5	BL	0.633480144563	374.22370596400003	1.0
375.72364665	2.5	C	0.583377378713	376.723647555	1.0
378.22359156199997	2.5	C	0.600088865518	379.22357556300005	1.0
380.723536473	2.5	BL	0.800144949804	381.72353285099996	1.0
383.223478367	2.5	BL	0.600091582197	384.22346780199996	1.0
385.72342056199994	2.5	BL	0.900150352973	386.72341241199996	0.0
388.22335551199996	2.5	A	0.766798948709	389.223340722	1.0
390.723299519	2.5	B	0.8334604637459999	391.723277785	0.0
393.22323899699995	2.5	A	0.816800593806	394.223223603	1.0
395.72334117400004	2.5	C	0.5333844873529999	396.723348419	1.0
398.22330510300003	2.5	B	0.566757353365	399.223274918	1.0
