onset	duration	trial_type	response_time	feedback_onset	correct/incorrect
0.7067404677069999	2.5	C	0.566720527298	1.70672386579	1.0
3.22335279581	2.5	B	0.583412393658	4.2233177808599995	1.0
5.72328955761	2.5	A	0.583384623187	6.723271144580001	1.0
8.223230545349999	2.5	A	0.600091280343	9.22319975634	1.0
10.7231688164	2.5	B	0.5501475910170001	11.723154931199998	1.0
13.2231110116	2.5	C	0.466723877871	14.2230775059	1.0
15.723036302999999	2.5	BL	0.6666583154	16.7228889987	1.0
18.222826666099998	2.5	A	0.466722368605	19.2228097623	1.0
20.7227736909	2.5	C	0.466745309433	21.7227441093	1.0
23.2227095471	2.5	B	0.466722368605	24.2226938507	0.0
25.7226493274	2.5	BL	0.6668113548619999	26.7226514404	1.0
28.222588504	2.5	C	0.616810313473	29.2225737133	1.0
30.722533415900003	2.5	B	0.633376307138	31.722515908400002	1.0
33.2224538776	2.5	A	0.466741687196	34.2224565943	1.0
35.7224144858	2.5	BL	0.533427048624	36.7224172025	1.0
38.222349436500004	2.5	B	0.883421056842	39.2223382679	0.0
40.7222813686	2.5	A	0.533417087474	41.722277746399996	1.0
43.22223111010001	2.5	C	0.41672374203699997	44.2222142063	1.0
45.7221742108	2.5	B	0.48338344596	46.7221579108	1.0
48.2221136893	2.5	A	0.550086918567	49.2220973892	1.0
50.7220558845	2.5	C	0.400114885244	51.722038678800004	1.0
53.221995061099996	2.5	A	0.401038253527	54.2219959666	1.0
55.7219351433	2.5	BL	0.7667575948469999	56.7219481229	1.0
58.221909033	2.5	BL	0.566810177639	59.2219011848	1.0
60.72185122810001	2.5	C	0.53338629847	61.7218276836	1.0
63.2217928196	2.5	BL	0.566822855464	64.2217840658	1.0
65.7217307888	2.5	B	0.666738910149	66.7217166017	1.0
68.22167358770001	2.5	BL	0.56681561099	69.2216337431	1.0
70.721619405	2.5	A	0.650034969669	71.7215877105	1.0
73.2215622039	2.5	B	0.600085846989	74.2215555631	0.0
75.7214959472	2.5	C	0.566752523719	76.721485986	1.0
78.2214390479	2.5	C	0.633403172051	79.221420333	1.0
80.7213930153	2.5	B	0.516729145205	81.7213531707	1.0
83.2213210234	2.5	BL	0.600095204431	84.2213231363	1.0
85.72126170930001	2.5	BL	0.566821044344	86.7212598981	1.0
88.2212020933	2.5	A	0.550089333392	89.2211604376	1.0
90.7211418736	2.5	B	0.6834093449429999	91.72111863090001	0.0
93.2210825595	2.5	A	0.6167713744359999	94.221067165	0.0
95.72102354719999	2.5	C	0.683366481822	96.7210009083	1.0
98.2209587998	2.5	C	0.6500805494690001	99.2209539701	1.0
100.720907938	2.5	BL	0.633424301759	101.720910051	1.0
103.22084771799999	2.5	B	0.616929243548	104.220822664	1.0
105.720757313	2.5	BL	0.600176101034	106.72079112	1.0
108.22073271200001	2.5	A	0.5500941630380001	109.22070433799999	1.0
110.72066947399999	2.5	B	0.666744645354	111.72065558799999	0.0
113.220612876	2.5	C	0.60009309146	114.220576956	1.0
115.720550242	2.5	A	0.616746018786	116.72052881	1.0
118.22049907799999	2.5	BL	0.766874713805	119.220495455	1.0
120.720438254	2.5	BL	0.900147636294	121.720457271	1.0
123.220379242	2.5	C	0.616779222612	124.22037773299999	1.0
125.720319324	2.5	BL	0.7001190206319999	126.72032143700001	1.0
128.22026061399998	2.5	B	0.68342805983	129.220234956	1.0
130.720202809	2.5	BL	0.600129917522	131.720189829	0.0
133.22013806200002	2.5	BL	0.733474077319	134.220140476	1.0
135.720085992	2.5	A	0.816707321232	136.720059731	1.0
138.22001883	2.5	B	0.683330561315	139.21999890700002	1.0
140.719973703	2.5	BL	0.8334390321870001	141.71995529	0.0
143.219899296	2.5	A	0.616789183765	144.219904729	1.0
145.719848434	2.5	C	0.6001492361140001	146.719833341	1.0
148.21976648	2.5	B	0.500127532887	149.219792138	1.0
150.71973705	2.5	A	0.583384019479	151.719723165	1.0
153.219674113	2.5	C	0.500055691875	154.219647249	1.0
155.719607857	2.5	B	0.600148934263	156.719600009	1.0
158.2195579	2.5	C	0.533421011562	159.219542807	1.0
160.719485606	2.5	A	0.6001588954129999	161.719472928	1.0
163.219445309	2.5	BL	0.566811686902	164.219450139	1.0
165.71938358	2.5	BL	0.90014401406	166.71938327799998	1.0
168.219314305	2.5	BL	0.6334792390039999	169.219326077	0.0
170.71925619799998	2.5	C	0.633396531288	171.719250765	1.0
173.219210165	2.5	BL	0.733434534577	174.21920503400003	1.0
175.719142098	2.5	B	n/a	176.71911493099998	n/a
178.219093952	2.5	A	0.616812728294	179.21907553900002	1.0
180.719035845	2.5	C	0.516752689735	181.719015923	1.0
183.218978644	2.5	BL	0.900136769589	184.218968079	1.0
185.718919632	2.5	A	0.616749339169	186.71889005	1.0
188.21885699700002	2.5	B	0.600072263605	189.21883496200002	0.0
190.7188167	2.5	A	0.7167311978049999	191.71879889099998	1.0
193.218748632	2.5	BL	0.700081590861	194.218749538	1.0
195.718675433	2.5	BL	0.600127804555	196.71867392400003	1.0
198.2186294	2.5	BL	0.633459316705	199.218612195	1.0
200.71856254	2.5	B	0.566741355156	201.71854110799998	1.0
203.21851197900003	2.5	BL	0.933418777851	204.21856027599998	0.0
205.718439082	2.5	BL	0.766773593055	206.718450552	1.0
208.218392446	2.5	BL	0.60009339331	209.21839274799999	0.0
210.718334943	2.5	C	0.5501475910170001	211.718309285	1.0
213.218283175	2.5	A	0.5833822083619999	214.21825117900002	1.0
215.718211485	2.5	C	0.600169460264	216.71820031599998	1.0
218.21816032099997	2.5	BL	0.600117541551	219.218162132	1.0
220.718121231	2.5	BL	0.633420377671	221.718112477	1.0
223.21803897599997	2.5	B	0.6000897710800001	224.21801060200002	0.0
225.71797724700002	2.5	C	0.5001344755039999	226.717963965	1.0
228.21792185700002	2.5	B	0.650045232669	229.217904651	1.0
230.71786375	2.5	A	0.616743000257	231.717867372	1.0
233.217812888	2.5	B	0.7834168610860001	234.217797192	1.0
235.717770176	2.5	A	0.666715365616	236.71775297	1.0
238.21769607099998	2.5	C	0.6167786189109999	239.217680676	1.0
240.717640983	2.5	A	0.566756447806	241.71765547200002	1.0
243.217596158	2.5	B	0.633407699846	244.21754937	1.0
245.71752386400001	2.5	C	0.750086556345	246.71750846900002	1.0
248.217466059	2.5	B	0.516831775218	249.21742259200002	1.0
250.717392558	2.5	C	0.5667627867189999	251.71739195400002	1.0
253.21734229900002	2.5	A	0.550102313067	254.217318755	1.0
255.717291135	2.5	C	0.516772008326	256.717248876	1.0
258.217227293	2.5	B	0.633410718379	259.21721552099996	1.0
260.717176733	2.5	A	0.900091793494	261.717175525	1.0
263.217127078	2.5	BL	0.766710505781	264.217121041	1.0
265.717076216	2.5	BL	0.7667533689049999	266.71707561200003	0.0
268.217002413	2.5	C	0.6168290283569999	269.216985207	1.0
270.716958191	2.5	A	0.783432859291	271.716948532	1.0
273.216887407	2.5	B	0.6167795244659999	274.216864164	1.0
275.716990188	2.5	BL	0.7332824006730001	276.716817528	1.0
278.216785984	2.5	C	0.650048251202	279.216755195	1.0
280.716739046	2.5	BL	0.666788112183	281.716715501	1.0
283.21664622599997	2.5	B	0.616777411495	284.216632945	0.0
285.71658329	2.5	A	0.800099068147	286.71658329	1.0
288.216540578	2.5	B	0.550168117021	289.21654118099997	1.0
290.716486697	2.5	A	0.283421237953	291.71646768	1.0
293.216441268	2.5	C	0.550075750005	294.216410781	1.0
295.716373804	2.5	B	0.616654255478	296.71635207	0.0
298.216312679	2.5	C	0.483390388581	299.216295171	1.0
300.716261213	2.5	A	0.666743437941	301.716226801	1.0
303.216194352	2.5	B	0.7833899961699999	304.216191032	1.0
305.71613624599996	2.5	A	0.6667491731499999	306.71611904	1.0
308.216072404	2.5	C	0.533498587782	309.216065763	1.0
310.715998902	2.5	A	0.566772446015	311.715998902	1.0
313.215982451	2.5	C	0.6500642494100001	314.215949248	1.0
315.715906234	2.5	B	0.933471300272	316.715890839	1.0
318.215840581	2.5	BL	0.766820983972	319.215835751	1.0
320.715791529	2.5	A	0.7167580627210001	321.715767985	1.0
323.21572648	2.5	B	0.7167976054590001	324.215709576	1.0
325.715679844	2.5	C	0.700059857445	326.71565962	1.0
328.215790775	2.5	B	0.616811822736	329.215777493	1.0
330.71571214200003	2.5	A	0.6501560127139999	331.715719688	1.0
333.21567576900003	2.5	C	0.616781033732	334.215662789	1.0
335.715598344	2.5	C	0.600168856559	336.715604079	1.0
338.215561367	2.5	B	0.916723289258	339.215514579	1.0
340.71550809	2.5	BL	0.9332666439480001	341.715320337	0.0
343.23193085400004	2.5	A	0.6501837831889999	344.231914856	1.0
345.731899914	2.5	B	0.516710430318	346.731882105	1.0
348.231821885	2.5	A	0.600111806347	349.231808	1.0
350.731782493	2.5	C	0.566711471711	351.731742045	1.0
353.23171955699996	2.5	A	0.716711879213	354.231705672	0.0
355.731640622	2.5	C	0.600084035872	356.731647867	1.0
358.231565008	2.5	BL	0.700153733724	359.231590967	1.0
360.73153587900003	2.5	B	0.7834165592319999	361.73151807	0.0
363.231466604	2.5	A	0.516752991589	364.231450606	1.0
365.73141966599997	2.5	BL	n/a	366.731397329	n/a
368.231360654	2.5	C	0.616753565108	369.231336204	1.0
370.731302547	2.5	B	0.6667802640039999	371.73128564300004	1.0
373.23124776099996	2.5	A	0.683386404118	374.231232668	1.0
375.731339675	2.5	C	0.416740947654	376.731352655	1.0
378.231305415	2.5	BL	0.69989534757	379.231121888	1.0
380.73106317800006	2.5	B	0.616715229782	381.731055631	0.0
383.231007184	2.5	A	0.433431908456	384.230998128	1.0
385.730955718	2.5	BL	0.766924217696	386.73095511400004	0.0
388.230917835	2.5	C	0.6167433021109999	389.230883726	1.0
390.73083678800003	2.5	B	0.56674135516	391.730825016	1.0
393.23078320900004	2.5	C	0.500112440237	394.230765701	1.0
395.730723895	2.5	B	0.883417132754	396.73070789699995	1.0
398.230658544	2.5	A	0.466807792996	399.23062866	1.0
