onset	duration	trial_type	response_time	feedback_onset	correct/incorrect
0.706455557465	2.5	A	0.6167805313310001	1.7064347294799995	1
3.22307311738	2.5	B	0.6000861493590001	4.2230640617400015	1
5.72303553646	2.5	C	0.366816376591	6.72302376412	1
8.222988598039999	2.5	C	0.450079704762	9.222930943769999	1
10.7229495078	2.5	A	0.500061729308	11.722939244800001	1
13.2229028713	2.5	BL	0.600132031293	14.222730814	1
15.7226630476	2.5	BL	0.533509053075	16.722693535	1
18.2226384465	2.5	B	0.516734377728	19.222589546	1
20.7226011674	2.5	C	0.48340870144599996	21.7225924136	1
23.2225379288	2.5	B	0.7501104033949999	24.222543664099998	1
25.7225121202	2.5	A	0.400066589169	26.722504272	1
28.2224672948	2.5	B	0.450095703065	29.222445561199997	1
30.7224269972	2.5	A	0.516796861677	31.722408584	1
33.2223818699	2.5	C	0.500094329625	34.2223622493	1
35.722334025900004	2.5	C	0.433419432386	36.7223316111	1
38.222271391	2.5	BL	0.600152255563	39.222298256100004	1
40.7222452806	2.5	A	0.500066860841	41.7222440732	1
43.222229131300004	2.5	BL	0.500134174461	44.222210718199996	1
45.7221680057	2.5	B	0.7000990989329999	46.7221583464	0
48.2221159358	2.5	BL	0.600104864359	49.2221153321	1
50.722082279	2.5	A	0.51680893587	51.722072015900004	1
53.222035642399995	2.5	BL	0.5667643971940001	54.222039566499994	0
55.721988100299995	2.5	C	0.616748836575	56.7219727057	1
58.2219493119	2.5	B	0.41676217856	59.221939048900005	1
60.721899355	2.5	A	0.41677908242899997	61.7218906012	1
63.2218608685	2.5	C	0.450107475404	64.2218521147	1
65.72182147640001	2.5	B	0.616718952951	66.7218115152	1
68.221774538	2.5	C	0.566713685585	69.22175069149999	1
70.7217342404	2.5	B	0.633393714357	71.7217146198	1
73.2216891131	2.5	A	0.5500950691709999	74.2216800574	1
75.72164700430001	2.5	C	0.7501140256540001	76.7216364394	1
78.2216058012	2.5	BL	0.566748398887	79.2216033863	1
80.7215528256	2.5	B	0.550113482313	81.7215419589	0
83.2215076984	2.5	BL	0.466785557212	84.221523093	1
85.721475249	2.5	A	0.650138204222	86.7214631748	1
88.2214219716	2.5	C	0.533490639937	89.2214352532	1
90.7213801647	2.5	A	0.583431310373	91.7213825795	1
93.2213434893	2.5	B	0.533479773163	94.2213286985	1
95.7213116437	2.5	C	0.333387767816	96.72128809899999	1
98.2212598756	2.5	A	0.450087552988	99.22123693459999	1
100.721217465	2.5	BL	0.600148331454	101.72122018200001	1
103.221172941	2.5	B	0.633502985798	104.221163282	1
105.721134455	2.5	C	0.61675487367	106.72111121200001	1
108.221086611	2.5	A	0.433463201334	109.221062764	1
110.72104631299999	2.5	B	0.400056326107	111.721034843	1
113.220998167	2.5	C	0.466734845606	114.220991225	1
115.720917723	2.5	B	0.533463473002	116.72094609700001	1
118.22091485600001	2.5	A	0.41678964734499996	119.2209058	1
120.72087003	2.5	A	0.616741592061	121.72085161700001	1
123.220818564	2.5	C	0.5834445919829999	124.220818564	1
125.72075230700001	2.5	B	0.600134446133	126.72075230700001	1
128.220743402	2.5	A	0.500094027771	129.220724385	1
130.720701293	2.5	C	0.500029128987	131.720690125	1
133.220647714	2.5	BL	0.700162186586	134.220660996	1
135.720616774	2.5	B	0.41678028984800003	136.720603794	1
138.220570137	2.5	C	0.433425771338	139.220545083	0
140.720526821	2.5	B	0.433430299159	141.720521086	1
143.220484411	2.5	A	0.533494564046	144.220474449	1
145.72044713100001	2.5	BL	0.566779489931	146.720443811	1
148.220400495	2.5	B	0.5667348154199999	149.220392949	0
150.720351745	2.5	C	0.616753062543	151.72033786	1
153.220315674	2.5	A	0.450097514196	154.22028579	1
155.72025515200002	2.5	B	0.433445995608	156.720266019	1
158.22022662700002	2.5	C	0.616749440287	159.22020972299998	1
160.720177273	2.5	A	0.616743403189	161.72017485799998	1
163.220142711	2.5	B	0.6334631409629999	164.220127618	1
165.720280508	2.5	A	0.500077123903	166.72027115	1
168.22023206	2.5	C	0.38344525606200003	169.220225419	1
170.72015252100002	2.5	A	0.583438554888	171.720176066	1
173.22012792	2.5	BL	0.600146218469	174.219996311	1
175.719921602	2.5	BL	0.600166140885	176.719940317	1
178.21986530599997	2.5	BL	0.566789149285	179.21989579400002	0
180.71984795	2.5	C	0.566759567515	181.719825311	1
183.219793465	2.5	B	0.400100698764	184.219777165	1
185.71976373200002	2.5	BL	0.566783112186	186.719768864	1
188.21971619	2.5	C	0.550089032076	189.21970653099999	1
190.719667742	2.5	A	0.466826005759	191.719669855	1
193.219627445	2.5	B	0.366742422164	194.21961899299998	1
195.719574771	2.5	A	0.46681513898500004	196.71957356400003	1
198.219539303	2.5	B	0.366765664981	199.21953869900003	1
200.719497798	2.5	C	0.400035799979	201.719496591	1
203.21945357599998	2.5	B	0.36677864474	204.21945357599998	1
205.71941569400002	2.5	C	0.433425771338	206.719404827	1
208.219375698	2.5	BL	0.566757756387	209.219384452	1
210.719353512	2.5	A	0.583395993359	211.719341437	1
213.21929208400002	2.5	C	0.4834464333	214.219274275	1
215.719246353	2.5	B	0.500044221728	216.71924273099998	1
218.21920575400003	2.5	A	0.5167376981340001	219.219188548	1
220.719181152	2.5	C	0.350053171725	221.719155193	1
223.21911187700002	2.5	BL	0.733492390693	224.219119725	1
225.719082446	2.5	B	0.666755613216	226.719072485	0
228.219035507	2.5	A	0.516732566601	229.21902886700002	1
230.718996115	2.5	C	0.41680111783	231.718988871	1
233.218943442	2.5	A	0.4834425091870001	234.218943442	1
235.71891099200002	2.5	B	0.466733034478	236.718900729	1
238.21884654599998	2.5	C	0.38353128468599995	239.21884413200002	0
240.718837038	2.5	BL	0.600124786779	241.718818927	1
243.218766555	2.5	BL	0.666784893132	244.21877410099998	0
245.718743765	2.5	BL	0.633401864437	246.718746783	0
248.21875116	2.5	BL	0.566710968891	249.21873908599997	1
250.71865834	2.5	A	0.516776939257	251.71867101799998	1
253.218605968	2.5	BL	0.600128710888	254.218615929	1
255.71856506700001	2.5	B	0.60015889637	256.718553596	1
258.21858121599996	2.5	BL	0.666707014592	259.218544692	1
260.718488999	2.5	BL	0.7668216892309999	261.71848266	1
263.218490056	2.5	C	0.5500464705470001	264.218445985	0
265.718402367	2.5	A	0.40003247957800003	266.718387274	1
268.21840342400003	2.5	B	0.350104185189	269.218399198	1
270.71831845099996	2.5	BL	0.566809071701	271.71831664	1
273.21831166	2.5	C	0.516660423302	274.218307434	1
275.718240573	2.5	A	0.433394076583	276.71823966700003	1
278.21822834799997	2.5	B	0.516690910637	279.21817491900003	1
280.71815031799997	2.5	BL	0.633439898142	281.718150016	1
283.218095833	2.5	C	0.433549531808	284.218104285	1
285.71806761	2.5	A	0.650155711799	286.718046178	0
288.218021577	2.5	B	0.60009279017	289.218013427	1
290.717984902	2.5	A	0.516757922403	291.71795562200003	1
293.217953962	2.5	BL	0.46673756229900004	294.218011314	1
295.717897062	2.5	C	0.533413063247	296.717901288	1
298.21785284	2.5	B	0.43345354197999997	299.21784469	0
300.717812543	2.5	C	0.500097650031	301.717804695	1
303.217767717	2.5	B	0.31676462358199997	304.21775745400004	1
305.71772319400003	2.5	BL	0.500090405516	306.71773466400003	0
308.21768531099997	2.5	BL	0.566759567515	309.217695272	0
310.717619658	2.5	BL	0.500097650031	311.717648334	0
313.21758569900004	2.5	A	0.450105664277	314.21758751	1
315.717558079	2.5	BL	0.6334003551640001	316.71755596599996	1
318.217516574	2.5	C	0.466726695526	319.217499368	1
320.71748895400003	2.5	B	0.63336383073	321.71746541	1
323.217443525	2.5	A	0.366754496354	324.217423905	1
325.71738994599997	2.5	BL	0.466819666806	326.717402926	0
328.217341498	2.5	A	0.466717639883	329.217335763	1
330.717303616	2.5	C	0.33342821636	331.717277958	1
333.21725456400003	2.5	BL	0.500147456074	334.217255168	1
335.717209739	2.5	BL	0.533442343167	336.71722362400004	1
338.217164008	2.5	BL	0.333531148848	339.21717668599996	0
340.71713125599996	2.5	BL	0.500134476315	341.717145745	1
343.217091563	2.5	BL	0.500155606154	344.217095185	1
345.717054585	2.5	B	0.483417153384	346.717018966	0
348.216998289	2.5	C	0.50010157414	349.216997082	1
350.716964029	2.5	A	0.40006870215400003	351.716971273	1
353.21690833699995	2.5	B	0.516695438459	354.216880264	1
355.716898225	2.5	A	0.466785859066	356.71686653	1
358.21688932	2.5	B	0.600040871141	359.21688117	1
360.71677386	2.5	BL	0.5334381172	361.716790764	1
363.21674171300003	2.5	C	0.366735781354	364.21672511099996	0
365.716725865	2.5	B	0.41680353266599995	366.716705037	1
368.216691605	2.5	A	0.383432880019	369.216674701	1
370.716627763	2.5	BL	0.500159832118	371.71663289400004	0
373.216623989	2.5	C	0.516678232736	374.216616745	1
375.71656195800006	2.5	B	0.6833745314830001	376.716545356	1
378.216515925	2.5	A	0.366740007325	379.21650354900004	1
380.71645389400004	2.5	C	0.35006494406099997	381.71644121599996	1
383.216418728	2.5	BL	0.700095778531	384.216438952	0
385.716381751	2.5	C	0.416808664198	386.716342208	1
388.21635865900004	2.5	A	0.41669516678999996	389.216318211	1
390.716289685	2.5	B	0.250095159729	391.71627640400004	1
393.216249689	2.5	C	0.316748625279	394.21625089699995	0
395.716205166	2.5	A	0.350055888419	396.716195205	1
398.21616305699996	2.5	B	0.533449889535	399.216158227	1
