onset	duration	trial_type	response_time	feedback_onset	correct/incorrect
0.709984240159	2.5	A	0.833387013179	1.70998846613	1.0
3.2266202132200004	2.5	B	0.550107747073	4.22660783718	1.0
5.72660074359	2.5	C	0.700119323203	6.726565728430001	0.0
8.22653327904	2.5	BL	0.733311881519	9.2263678626	1.0
10.7263061333	2.5	A	0.433414300856	11.726288022	1.0
13.2262721746	2.5	B	0.433398906258	14.226237461300002	1.0
15.726228858499999	2.5	C	0.50006927568	16.7262204065	1.0
18.2261852404	2.5	C	0.800090616813	19.2261417734	1.0
20.7261422261	2.5	BL	0.600125390487	21.7261419243	1.0
23.2260995137	2.5	B	0.800088805681	24.226087137600004	0.0
25.7260540845	2.5	A	0.883389261999	26.726045934499997	1.0
28.2260119758	2.5	BL	0.600149538874	29.2260165036	1.0
30.7259689615	2.5	BL	0.633471291043	31.7259656411	1.0
33.2259114581	2.5	A	0.666706410884	34.2259150804	0.0
35.725880518000004	2.5	B	0.58342738626	36.7258723679	1.0
38.225838409299996	2.5	C	0.816803110069	39.225828749899996	1.0
40.725768529899995	2.5	B	n/a	41.725774566999995	n/a
43.225751173199995	2.5	C	0.883422767882	44.22574030649999	1.0
45.7258832347	2.5	A	0.566785828883	46.725866028999995	1.0
48.225822712799996	2.5	C	0.7501004421870001	49.225830561	1.0
50.725798715399996	2.5	A	0.7833889903300001	51.725737136999996	1.0
53.225755097299995	2.5	BL	0.566575134224	54.2255863605	1.0
55.7255342906	2.5	B	0.71676631397	56.725523725600006	0.0
58.2254921818	2.5	BL	0.566759265661	59.225489465100004	1.0
60.7254443378	2.5	A	0.6334160516130001	61.725437697	1.0
63.2253964938	2.5	B	0.650097755679	64.2253922679	1.0
65.72536283699999	2.5	BL	0.600104864359	66.7253549888	1.0
68.2253174079	2.5	BL	0.633479441123	69.2253116726	1.0
70.7252737899	2.5	BL	0.6000891679070001	71.7252804307	1.0
73.22522171989999	2.5	C	0.450102343872	74.2252129661	1.0
75.72518745939999	2.5	B	0.7501137238	76.72517659260001	1.0
78.2251441432	2.5	BL	0.666761952169	79.22515018029999	1.0
80.72510294	2.5	A	0.566821145894	81.725090564	1.0
83.2250493608	2.5	C	0.566714591147	84.22504030520001	1.0
85.72501721329998	2.5	BL	0.633480346685	86.7250144966	1.0
88.22496333219999	2.5	A	0.53348641397	89.2249612192	1.0
90.7249287698	2.5	B	0.783392008878	91.7249302791	1.0
93.2248845481	2.5	C	0.600092488312	94.2248757943	1.0
95.7248333837	2.5	C	0.716733109937	96.7248219132	1.0
98.2247873508	2.5	BL	0.466763823668	99.2248048584	1.0
100.72475520299999	2.5	A	0.500060220034	101.724743733	1.0
103.224703435	2.5	B	0.6834469766399999	104.224678381	1.0
105.724659817	2.5	C	0.6000610954110001	106.72466193	1.0
108.22462706600001	2.5	BL	0.566755341548	109.224633405	1.0
110.72458193899999	2.5	A	0.566816919927	111.72457409	1.0
113.22453228399999	2.5	B	0.450089062258	114.22452232200001	1.0
115.724489873	2.5	BL	0.733433529007	116.724503758	0.0
118.22445561200001	2.5	C	0.8000743166519999	119.224434483	1.0
120.724402939	2.5	B	0.550038622321	121.724383922	0.0
123.224377734	2.5	A	0.600079810411	124.224361736	1.0
125.724300912	2.5	A	0.550073939336	126.724315099	1.0
128.224284159	2.5	BL	0.6667510853949999	129.224284461	0.0
130.724240541	2.5	B	0.900140694524	131.72423058	0.0
133.224196017	2.5	BL	0.6334561983020001	134.224202658	0.0
135.72414485299998	2.5	C	0.900182652342	136.724143042	1.0
138.224112705	2.5	B	0.883410391834	139.22409429200002	0.0
140.724069691	2.5	C	0.616748534721	141.724047957	1.0
143.224017923	2.5	A	0.550095672883	144.224016716	1.0
145.72398396399998	2.5	A	0.5668063550110001	146.723973399	1.0
148.22394366700001	2.5	C	0.550086617237	149.223929479	1.0
150.723898539	2.5	B	0.616751855126	151.72387741	0.0
153.223854921	2.5	BL	0.866818036789	154.223853714	0.0
155.72381402	2.5	BL	0.8000643554440001	156.723818246	1.0
158.223769195	2.5	A	0.600087356783	159.223763157	1.0
160.723726784	2.5	C	0.5500657892549999	161.723718634	1.0
163.223675921	2.5	BL	0.666768291121	164.223692222	0.0
165.723640755	2.5	B	0.8667362341399999	166.72363139799998	1.0
168.22359985399999	2.5	A	0.616729517867	169.223590195	1.0
170.723556236	2.5	C	0.516807728451	171.723545369	1.0
173.22351624	2.5	B	0.6834786713950001	174.22350477	1.0
175.723469906	2.5	BL	0.766808407621	176.723470509	0.0
178.22343323	2.5	C	0.633442916689	179.223422363	1.0
180.723385386	2.5	A	0.566777678803	181.72336576599997	1.0
183.223344787	2.5	B	0.616719254806	184.22332546799998	1.0
185.723297848	2.5	A	0.55005975216	186.723293622	1.0
188.223259664	2.5	C	0.533454719214	189.22325000400002	1.0
190.723206688	2.5	B	0.666768894829	191.72319884	1.0
193.223159448	2.5	C	0.53346769897	194.223155222	1.0
195.72313092299999	2.5	BL	0.633434162901	196.72313303599998	1.0
198.223091531	2.5	A	0.533449285827	199.22308338	1.0
200.72303704599997	2.5	B	0.5833990119100001	201.72303704599997	1.0
203.22300731299998	2.5	BL	0.600137162826	204.22300218200002	1.0
205.72295373400001	2.5	A	0.566825070007	206.722955545	1.0
208.22291071900003	2.5	B	0.600103355086	209.22292158599998	1.0
210.722896381	2.5	C	0.4834147385450001	211.722867101	1.0
213.222836463	2.5	C	0.500069275677	214.22282831299998	1.0
215.72279375099998	2.5	B	0.616753062543	216.72277594099998	1.0
218.22275435900002	2.5	A	0.5167220016849999	219.222740775	1.0
220.722688102	2.5	A	0.500086783257	221.72269987400003	1.0
223.22266833	2.5	BL	0.533458039616	224.222668632	1.0
225.72260901599998	2.5	C	0.566825070007	226.72261475099998	1.0
228.222597092	2.5	B	0.400140543596	229.22257203799998	1.0
230.722544721	2.5	A	0.466874906237	231.722534156	1.0
233.22250714	2.5	C	0.500109724224	234.222460654	1.0
235.722476803	2.5	B	0.533399479784	236.72244480700002	1.0
238.22240511299998	2.5	BL	0.500152889457	239.222399679	1.0
240.722369947	2.5	C	0.700100004498	241.72234217599998	1.0
243.22233085599999	2.5	BL	0.633467065076	244.222334479	1.0
245.722288446	2.5	BL	0.5667837159019999	246.722292672	1.0
248.222234263	2.5	A	0.550104124814	249.222190192	1.0
250.72219366299998	2.5	BL	0.566830201537	251.722208152	1.0
253.222152762	2.5	B	0.500089198096	254.22212378400002	0.0
255.722103711	2.5	C	0.483430133139	256.7221019	1.0
258.22207578900003	2.5	B	0.58345545876	259.22204922599997	1.0
260.72202613400003	2.5	A	0.40005572239500004	261.722026738	1.0
263.221993081	2.5	A	0.500091009228	264.221983723	1.0
265.721936483	2.5	B	0.46678767019699996	266.721934068	1.0
268.221907656	2.5	C	0.416762782268	269.22190282599996	1.0
270.721884262	2.5	B	0.633407297824	271.721859208	1.0
273.22183007900003	2.5	A	0.48344914999	274.221802912	1.0
275.721784952	2.5	C	0.566812392106	276.721773783	1.0
278.221741636	2.5	B	0.45009238266400003	279.22171628	1.0
280.721715525	2.5	A	0.40004545933700003	281.721683831	0.0
283.221657418	2.5	BL	0.6001543685490001	284.221663154	1.0
285.721613197	2.5	C	0.5000671626950001	286.721595085	1.0
288.22156505099997	2.5	C	0.450072460248	289.22156505099997	1.0
290.721525055	2.5	A	0.483399042092	291.721513585	1.0
293.221488078	2.5	BL	0.466753258752	294.221498945	1.0
295.721450195	2.5	B	0.500060823742	296.721434499	0.0
298.221407483	2.5	C	0.550067902237	299.22139571	1.0
300.721362355	2.5	BL	0.533486715824	301.721386806	1.0
303.221336849	2.5	A	0.466733034475	304.221329	1.0
305.721280251	2.5	B	0.633442614835	306.72128477900003	0.0
308.22123753799997	2.5	A	0.5835034536689999	309.221201618	1.0
310.721196335	2.5	BL	0.500102177852	311.721201467	1.0
313.22114336	2.5	C	0.48344764071999996	314.221137323	1.0
315.721112721	2.5	BL	0.8001531007580001	316.721118457	1.0
318.221072122	2.5	B	0.533436607922	319.22106035	1.0
320.72104510599996	2.5	C	0.416709353969	321.721018844	1.0
323.220977339	2.5	BL	0.5667767732410001	324.22099213	1.0
325.720959983	2.5	BL	0.633414844193	326.720940664	1.0
328.22090187599997	2.5	B	0.733498427788	329.220893726	0.0
330.720860673	2.5	BL	0.600106373633	331.72088301	1.0
333.220818866	2.5	A	0.500133570753	334.220814036	1.0
335.720785511	2.5	B	0.433398906262	336.720758042	1.0
338.220699633	2.5	C	0.466793103584	339.220704463	1.0
340.72068076700003	2.5	A	0.5333982723640001	341.72074566599997	1.0
343.220654657	2.5	A	0.500103687125	344.220635036	1.0
345.72066597599996	2.5	B	0.399999577403	346.720609529	1.0
348.22056923199995	2.5	C	0.400148089968	349.220558969	1.0
350.720586588	2.5	BL	0.600086451217	351.720522595	1.0
353.220469016	2.5	B	0.500098857447	354.220465092	0.0
355.720473695	2.5	C	0.400033686994	356.72044984800004	0.0
358.2204014	2.5	A	0.550093861752	359.220407739	1.0
360.72040426800004	2.5	B	0.566720326391	361.720372875	1.0
363.220317485	2.5	A	0.516741924101	364.22029786400003	1.0
365.720290771	2.5	BL	0.600136257261	366.72029197800003	1.0
368.220226023	2.5	C	0.666723314749	369.22022843800005	1.0
370.720212288	2.5	C	0.483407494026	371.72019266800004	1.0
373.220151163	2.5	B	0.566711270745	374.22013275	1.0
375.72011931699996	2.5	A	0.400049685304	376.72009486699994	1.0
378.220030119	2.5	B	0.583504359234	379.220040382	1.0
380.72001940300004	2.5	A	0.516805313611	381.720024233	1.0
383.219983935	2.5	BL	0.566749908161	384.21998695400003	0.0
385.71994303400004	2.5	BL	0.9001195646889999	386.71995209	1.0
388.21989156800004	2.5	C	0.416756443319	389.219891266	0.0
390.71985972199997	2.5	A	0.433383813517	391.719850063	1.0
393.219801313	2.5	B	0.633480648539	394.219801313	1.0
395.719763732	2.5	BL	0.533490036225	396.71977158	0.0
398.219747885	2.5	C	0.5167307554730001	399.219717699	1.0
